CO	DM	SE	SV	CM	EX	EC	PR	SU	AE	CE	DS	DV	HO	MH	DA	DD	EG	IE	IS	LB	MB	MS	MI	MO	PC	PP	PE	QS	RP	SC	SS	TU	TR	RS	VS	CC	FA	SR	TA	TE	TV	TD	TI	TS	BE	BS	PF	PG	PB	SB	DI	DU	DX	DE	DT	DR	DO	RELREC	AG	RELSUB	RE
STUDYID	STUDYID	STUDYID	STUDYID	STUDYID	STUDYID	STUDYID	STUDYID	STUDYID	STUDYID	STUDYID	STUDYID	STUDYID	STUDYID	STUDYID	STUDYID	STUDYID	STUDYID	STUDYID	STUDYID	STUDYID	STUDYID	STUDYID	STUDYID	STUDYID	STUDYID	STUDYID	STUDYID	STUDYID	STUDYID	STUDYID	STUDYID	STUDYID	STUDYID	STUDYID	STUDYID	STUDYID	STUDYID	STUDYID	STUDYID	STUDYID	STUDYID	STUDYID	STUDYID	STUDYID	STUDYID	STUDYID	STUDYID	STUDYID	STUDYID	STUDYID	STUDYID	STUDYID	STUDYID	STUDYID	STUDYID	STUDYID	STUDYID	STUDYID	STUDYID	STUDYID	STUDYID
DOMAIN	DOMAIN	DOMAIN	DOMAIN	DOMAIN	DOMAIN	DOMAIN	DOMAIN	DOMAIN	DOMAIN	DOMAIN	DOMAIN	DOMAIN	DOMAIN	DOMAIN	DOMAIN	DOMAIN	DOMAIN	DOMAIN	DOMAIN	DOMAIN	DOMAIN	DOMAIN	DOMAIN	DOMAIN	DOMAIN	DOMAIN	DOMAIN	DOMAIN	DOMAIN	DOMAIN	DOMAIN	DOMAIN	DOMAIN	DOMAIN	DOMAIN	DOMAIN	DOMAIN	DOMAIN	DOMAIN	DOMAIN	DOMAIN	DOMAIN	DOMAIN	DOMAIN	DOMAIN	DOMAIN	DOMAIN	DOMAIN	DOMAIN	DOMAIN	DOMAIN	DOMAIN	DOMAIN	DOMAIN	DOMAIN	DOMAIN	DOMAIN	RDOMAIN	DOMAIN	USUBJID	DOMAIN
RDOMAIN	USUBJID	USUBJID	USUBJID	USUBJID	USUBJID	USUBJID	USUBJID	USUBJID	USUBJID	USUBJID	USUBJID	USUBJID	USUBJID	USUBJID	USUBJID	USUBJID	USUBJID	USUBJID	USUBJID	USUBJID	USUBJID	USUBJID	USUBJID	USUBJID	USUBJID	USUBJID	USUBJID	USUBJID	USUBJID	USUBJID	USUBJID	USUBJID	USUBJID	USUBJID	USUBJID	USUBJID	USUBJID	USUBJID	USUBJID	USUBJID	VISITNUM	TDORDER	IETESTCD	TSSEQ	USUBJID	USUBJID	USUBJID	USUBJID	PBSEQ	USUBJID	SPDEVID	USUBJID	USUBJID	USUBJID	SPDEVID	USUBJID	SPDEVID	USUBJID	USUBJID	POOLID	USUBJID
USUBJID	SUBJID	SESEQ	SVSEQ	CMSEQ	EXSEQ	ECSEQ	PRSEQ	SUSEQ	AESEQ	CESEQ	DSSEQ	DVSEQ	HOSEQ	MHSEQ	DASEQ	DDSEQ	EGSEQ	IESEQ	ISSEQ	LBSEQ	MBSEQ	MSSEQ	MISEQ	MOSEQ	PCSEQ	PPSEQ	PESEQ	QSSEQ	RPSEQ	SCSEQ	SSSEQ	TUSEQ	TRSEQ	RSSEQ	VSSEQ	CCSEQ	FASEQ	SRSEQ	ARMCD	ETCD	VISIT	TDANCVAR	IETEST	TSGRPID	SPDEVID	SPDEVID	SPDEVID	SPDEVID	PBMRKRID	SBSEQ	DISEQ	SPDEVID	SPDEVID	SPDEVID	DTSEQ	SPDEVID	DOSEQ	IDVAR	AGSEQ	RSUBJID	SPDEVID
COSEQ	RFSTDTC	SEGRPID	SVGRPID	CMGRPID	EXGRPID	ECGRPID	PRGRPID	SUGRPID	AEGRPID	CEGRPID	DSGRPID	DVREFID	HOGRPID	MHGRPID	DAGRPID	DDTESTCD	EGGRPID	IESPID	ISGRPID	LBGRPID	MBGRPID	MSGRPID	MIGRPID	MOGRPID	PCGRPID	PPGRPID	PEGRPID	QSGRPID	RPGRPID	SCGRPID	SSGRPID	TUGRPID	TRGRPID	RSGRPID	VSGRPID	CCGRPID	FAGRPID	SRGRPID	ARM	ELEMENT	VISITDY	TDSTOFF	IECAT	TSPARMCD	BESEQ	BSSEQ	PFSEQ	PGSEQ	PBMRKR	SBGRPID	DIPARMCD	DUSEQ	DXSEQ	DESEQ	DTTERM		DOGRPID	IDVARVAL	AGGRPID	SREL	RESEQ
POOLID	RFENDTC	SEREFID	SVREFID	CMSPID	EXREFID	ECREFID	PRSPID	SUSPID	AEREFID	CEREFID	DSREFID	DVSPID	HOREFID	MHREFID	DAREFID	DDTEST	EGREFID	IETESTCD	ISREFID	LBREFID	MBREFID	MSREFID	MIREFID	MOREFID	PCREFID	PPTESTCD	PESPID	QSSPID	RPREFID	SCSPID	SSSPID	TUREFID	TRREFID	RSREFID	VSSPID	CCREFID	FASPID	SRREFID	TAETORD	TESTDTC	ARMCD	TDTGTPAI	IESCAT	TSPARM	BEGRPID	BSGRPID	PFGRPID	PGGRPID	PBGENRI	SBREFID	DIPARM	DUGRPID	DXGRPID	DESPID	DTMODIFY		DOREFID	RELTYPE	AGSPID		REGRPID
IDVAR	RFXSTDTC	SESPID	VISITNUM	CMTRT	EXSPID	ECSPID	PRLNKID	SUTRT	AESPID	CESPID	DSSPID	DVTERM	HOSPID	MHSPID	DASPID	DDORRES	EGSPID	IETEST	ISSPID	LBSPID	MBSPID	MSSPID	MISPID	MOSPID	PCSPID	PPTEST	PETESTCD	QSTESTCD	RPSPID	SCTESTCD	SSTESTCD	TUSPID	TRSPID	RSSPID	VSTESTCD	CCSPID	FATESTCD	SRSPID	ETCD	TEENDTC	ARM	TDMINPAI	TIRL	TSVAL	BEREFID	BSREFID	PFREFID	PGREFID	PBGENTYP	SBMRKRID	DIVAL	DUREFID	DXSPID	DETERM	DTDECOD		DOSPID	RELID	AGTRT		REREFID
IDVARVAL	RFXENDTC	ETCD	VISIT	CMMODIFY	EXLNKID	ECLNKID	PRLNKGRP	SUMODIFY	AETERM	CETERM	DSTERM	DVDECOD	HOTERM	MHTERM	DATESTCD	DDSTRESC	EGTESTCD	IECAT	ISTESTCD	LBTESTCD	MBTESTCD	MSTESTCD	MITESTCD	MOLNKID	PCTESTCD	PPCAT	PETEST	QSTEST	RPTESTCD	SCTEST	SSTEST	TULNKID	TRLNKID	RSLNKID	VSTEST	CCLNKID	FATEST	SRTESTCD	ELEMENT	EPOCH	TVSTRL	TDMAXPAI	TIVERS	TSVALNF	BESPID	BSSPID	PFSPID	PGSPID	PBNSPCES	SBGENRI		DUSPID	DXTRT	DEMODIFY	DTPARTY		DOTESTCD		AGMODIFY		RESPID
COREF	RFICDTC	ELEMENT	VISITDY	CMDECOD	EXLNKGRP	ECLNKGRP	PRTRT	SUDECOD	AEMODIFY	CEDECOD	DSDECOD	DVCAT	HODECOD	MHMODIFY	DATEST	DDRESCAT	EGTEST	IESCAT	ISTEST	LBTEST	MBTEST	MSTEST	MITEST	MOTESTCD	PCTEST	PPSCAT	PEMODIFY	QSCAT	RPTEST	SCCAT	SSCAT	TUTESTCD	TRLNKGRP	RSLNKGRP	VSCAT	CCLNKGRP	FAOBJ	SRTEST	TASTDTC	TESTRL	TVENRL	TDNUMRPT		TSVALCD	BELNKID	BSTESTCD	PFLNKID	PGLNKID	PBNSTRN	SBGENTYP		DUTESTCD	DXCAT	DEDECOD	DTPRTYID		DOTEST		AGDECOD		RETESTCD
COVAL	RFPENDTC	SESTDTC	SVSTDTC	CMCAT	EXTRT	ECTRT	PRDECOD	SUCAT	AELLT	CECAT	DSCAT	DVSCAT	HOCAT	MHDECOD	DACAT	DDEVAL	EGCAT	IEORRES	ISCAT	LBCAT	MBCAT	MSCAT	MITSTDTL	MOTEST	PCCAT	PPORRES	PECAT	QSSCAT	RPCAT	SCSCAT	SSSCAT	TUTEST	TRTESTCD	RSTESTCD	VSSCAT	CCTESTCD	FACAT	SROBJ	TAENDTC	TEENRL				TSVCDREF	BETERM	BSTEST	PFTESTCD	PGTESTCD	PBDRUG	SBNSPCES		DUTEST	DXSCAT	DECAT	DTCAT		DOCAT		AGCAT		RETEST
COEVAL	DTHDTC	SEENDTC	SVENDTC	CMSCAT	EXCAT	ECMOOD	PRCAT	SUSCAT	AELLTCD	CESCAT	DSSCAT	EPOCH	HOSCAT	MHCAT	DASCAT	DDDTC	EGSCAT	IESTRESC	ISSCAT	LBSCAT	MBSCAT	MSSCAT	MICAT	MOCAT	PCSCAT	PPORRESU	PESCAT	QSORRES	RPSCAT	SCORRES	SSORRES	TUORRES	TRTEST	RSTEST	VSPOS	CCTEST	FASCAT	SRCAT	TABRANCH	TEDUR				TSVCDVER	BEMODIFY	BSCAT	PFTEST	PGTEST	PBDIAG	SBNSTRN		DUCAT	DXDOSE	DESCAT	DTSCAT		DOSCAT		AGSCAT		RECAT
CODTC	DTHFL	SEDY	SVSTDY	CMPRESP	EXSCAT	ECCAT	PRSCAT	SUPRESP	AEDECOD	CEPRESP	EPOCH	DVSTDTC	HOPRESP	MHSCAT	DAORRES	DDDY	EGPOS	VISITNUM	ISORRES	LBORRES	MBORRES	MSORRES	MISCAT	MOSCAT	PCORRES	PPSTRESC	PEBODSYS	QSORRESU	RPORRES	SCORRESU	SSSTRESC	TUSTRESC	TRORRES	RSCAT	VSORRES	CCMODIFY	FAORRES	SRSCAT	TATRANS						BEDECOD	BSSCAT	PFTSTDTL	PGGENRI	PBSTMT	SBNAM		DUSCAT	DXDOSTXT	DEPRESP	DTDTC		DOORRES		AGPRESP		RESCAT
COGRPID	SITEID	SEDUR	SVENDY	CMOCCUR	EXDOSE	ECSCAT	PRPRESP	SUOCCUR	AEPTCD	CEOCCUR	DSDTC	DVENDTC	HOOCCUR	MHPRESP	DAORRESU	DDGRPID	EGORRES	VISIT	ISORRESU	LBORRESU	MBORRESU	MSORRESU	MIORRES	MOPOS	PCORRESU	PPSTRESN	PEORRES	QSSTRESC	RPORRESU	SCSTRESC	SSSTAT	TUNAM	TRORRESU	RSORRES	VSORRESU	CCTSTDTL	FAORRESU	SRORRES	EPOCH						BECAT	BSORRES	PFGENRI	PGGENTYP		VISITNUM		DUORRES	DXDOSU	DEOCCUR	DTSTDTC		DOORRESU		AGOCCUR		REPOS
COREFID	INVID	TAETORD	SVUPDES	CMSTAT	EXDOSTXT	ECPRESP	PROCCUR	SUSTAT	AEHLT	CESTAT	DSSTDTC	DVGRPID	HOSTAT	MHOCCUR	DASTRESC	DDREFID	EGORRESU	VISITDY	ISSTRESC	LBORNRLO	MBSTRESC	MSSTRESC	MIORRESU	MOORRES	PCSTRESC	PPSTRESU	PEORRESU	QSSTRESN	RPSTRESC	SCSTRESN	SSREASND	TULOC	TRSTRESC	RSSTRESC	VSSTRESC	CCCAT	FASTRESC	SRORRESU	TADUR						BESCAT	BSORRESU	PFGENTYP	PGCAT		VISIT		DUORRESU	DXDOSFRQ	DESTAT					AGSTAT		REORRES
COSPID	INVNAM	EPOCH	SVSPID	CMREASND	EXDOSU	ECOCCUR	PRINDC	SUREASND	AEHLTCD	CEREASND	DSSTDY	DVMODIFY	HOREASND	MHSTAT	DASTRESN	DDSPID	EGSTRESC	IEDTC	ISSTRESN	LBORNRHI	MBSTRESN	MSSTRESN	MISTRESC	MOORRESU	PCSTRESN	PPSTAT	PESTRESC	QSSTRESU	RPSTRESN	SCSTRESU	SSEVAL	TULAT	TRSTRESN	RSSTAT	VSSTRESN	CCSCAT	FASTRESN	SRSTRESC							BESPEC	BSSTRESC	PFREFSEQ	PGSCAT		VISITDY		DUSTRESC	DXDOSTOT	DEREASND					AGREASND		REORRESU
VISITNUM	BRTHDTC	SEUPDES	SVDUR	CMINDC	EXDOSFRM	ECDOSE	PRDOSE	SUCLAS	AEHLGT	CEBODSYS	DSMODIFY	DVLLT	HODTC	MHREASND	DASTRESU	DDLNKID	EGSTRESN	IEDY	ISSTRESU	LBSTRESC	MBSTRESU	MSSTRESU	MISTRESN	MOSTRESC	PCSTRESU	PPREASND	PESTAT	QSSTAT	RPSTRESU	SCSTAT	VISITNUM	TUDIR	TRSTRESU	RSREASND	VSSTRESU	CCPOS	FASTRESU	SRSTRESN							BELOC	BSSTRESN	PFGENLI	PGNSPCES		SBDTC		DUSTRESN	DXDOSRGM	DESEV					AGCLAS		REORREF
VISIT	AGE	SEDTC	TAETORD	CMCLAS	EXDOSFRQ	ECDOSTXT	PRDOSTXT	SUCLASCD	AEHLGTCD	CESEV	DSLLT	DVLLTCD	HOSTDTC	MHBODSYS	DASTAT	DDLNKGRP	EGSTRESU	IEGRPID	ISSTAT	LBSTRESN	MBRESCAT	MSRESCAT	MISTRESU	MOSTRESN	PCSTAT	PPSPEC	PEREASND	QSREASND	RPSTAT	SCREASND	VISIT	TUPORTOT	TRSTAT	RSNAM	VSSTAT	CCBODSYS	FASTAT	SRSTRESU							BEPARTY	BSSTRESU	PFGENTRG	PGNSTRN				DUSTRESU	DXROUTE	DEACNDEV					AGCLASCD		RESTRESC
VISITDY	AGEU		EPOCH	CMCLASCD	EXDOSRGM	ECDOSU	PRDOSU	SUDOSE	AECAT	CEDTC	DSLLTCD	DVPTCD	HOENDTC	MHDTC	DAREASND	DDMODIFY	EGSTAT	IEREFID	ISREASND	LBSTRESU	MBSTAT	MSSTAT	MIRESCAT	MOSTRESU	PCREASND	PPDTC	PELOC	QSBLFL	RPREASND	SCDTC	VISITDY	TUMETHOD	TRREASND	RSEVAL	VSREASND	CCORRES	FAREASND	SRSTAT							BEPRTYID	BSSTAT	PFCAT	PGORRES				VISITNUM	DXLOC	VISITNUM					AGDOSE		RESTRESN
CODY	SEX		SVSTRF	CMDOSE	EXROUTE	ECDOSFRM	PRDOSFRM	SUDOSTXT	AESCAT	CESTDTC	DSPTCD	DVHLT	HODY	MHSTDTC	VISITNUM	DDTSTDTL	EGREASND	IELNKID	ISNAM	LBSTNRLO	MBREASND	MSREASND	MISTAT	MOSTAT	PCNAM	PPRFTDTC	PEMETHOD	QSDRVFL	RPBLFL	SCDY	SSDTC	TUEVAL	TRNAM	RSEVALID	VSLOC	CCORRESU	FALOC	SRREASND							VISITNUM	BSREASND	PFSCAT	PGORRESU				VISIT	DXLAT	VISIT					AGDOSTXT		RESTRESU
COTPT	RACE		SVENRF	CMDOSTXT	EXLOT	ECDOSFRQ	PRDOSFRQ	SUDOSU	AEPRESP	CEENDTC	DSHLT	DVHLTCD	HOSTDY	MHENDTC	VISIT	DDCAT	EGFXN	IELNKGRP	ISSPEC	LBSTNRHI	MBNAM	MSNAM	MIREASND	MOREASND	PCSPEC	PPSTINT	PEEVAL	QSEVAL	RPDRVFL	SCREFID	SSDY	TUEVALID	TRMETHOD	RSACPTFL	VSLAT	CCORNRLO	FALAT	SRNAM							VISIT	BSNAM	PFNSPCES	PGSTRESC				VISITDY	DXMETHOD	VISITDY					AGDOSU		RESTREFN
COTPTNUM	ETHNIC		SVSTRTPT	CMDOSU	EXLOC	ECDOSTOT	PRDOSRGM	SUDOSFRM	AEBODSYS	CEDY	DSHLTCD	DVHLGT	HOENDY	MHDY	VISITDY	DDSCAT	EGNAM	IEMODIFY	ISMETHOD	LBSTNRC	MBLOINC	MSLOINC	MINAM	MOXFN	PCSPCCND	PPENINT	VISITNUM	VISITNUM	VISITNUM	SCLNKID	SSREFID	TUACPTFL	TREVAL	VISITNUM	VSBLFL	CCORNRHI	FABLFL	SRSPEC							VISITDY	BSSPEC	PFNSTRN	PGSTRESN				DUDTC	DXADJ	DEDTC					AGDOSFRM		RESTAT
COTPTREF	ARMCD		SVSTTPT	CMDOSFRM	EXLAT	ECDOSRGM	PRROUTE	SUDOSFRQ	AEBDSYCD	CESTRF	DSHLGT	DVHLGTCD	HODUR	MHENRF	DADTC	DDPOS	EGMETHOD	IETSTDTL	ISBLFL	LBNRIND	MBSPEC	MSMETHOD	MISPEC	MONAM	PCMETHOD	PPREFID	VISIT	VISIT	VISIT	SCLNKGRP	SSLNKID	VISITNUM	TREVALID	VISIT	VSDRVFL	CCSTRESC	FAEVAL	SRLOC							BEDTC	BSANTREG	PFORRES	PGSTRESU				DUDY	DXSTDTC	DESTDTC					AGDOSFRQ		REREASND
COELTM	ARM		SVENRTPT	CMDOSFRQ	EXDIR	ECROUTE	PRLOC	SUDOSTOT	AESOC	CEENRF	DSHLGTCD	DVPRESP	HOSTRTPT	MHENRTPT	DADY	DDBODSYS	EGLEAD	IEPOS	ISLLOQ	LBSTAT	MBSPCCND	MSBLFL	MISPCCND	MOLOC	PCDRVFL	PPSPID	VISITDY	VISITDY	VISITDY	SCMODIFY	SSLNKGRP	VISIT	TRACPTFL	VISITDY	VISITNUM	CCSTRESN	VISITNUM	SRLAT							BEDY	BSSPCCND	PFORRESU	PGSTAT					DXENDTC	DEENDTC					AGROUTE		RELOC
CORFTDTC	ACTARMCD		SVENTPT	CMDOSTOT	EXFAST	ECLOT	PRLAT	SUROUTE	AESOCCD	CESTRTPT	DSPRESP	DVOCCUR	HOSTTPT	MHENTPT	DALNKID	DDORRESU	EGBLFL	IEBODSYS	VISITNUM	LBREASND	MBLOC	MSDRVFL	MILOC	MOLAT	PCLLOQ	PPLNKID	PEDTC	QSDTC	RPDTC	SCTSTDTL	SSMODIFY	VISITDY	VISITNUM	EPOCH	VISIT	CCSTRESU	VISIT	SRMETHOD							BESTDTC	BSMETHOD	PFORREF	PGREASND					DXSTDY	DEDY					VISITNUM		RELAT
TAETORD	ACTARM			CMDOSRGM	EXADJ	ECLOC	PRDIR	SUSTDTC	AELOC	CESTTPT	DSOCCUR	DVSTAT	HOENRTPT	MHELTM	DALNKGRP	DDORNRLO	EGDRVFL	IEORRESU	VISIT	LBNAM	MBMETHOD	VISITNUM	MILAT	MODIR	PCULOQ	PPLNKGRP	PEDY	QSDY	RPDY	SCPOS	SSTSTDTL	EPOCH	VISIT	RSDTC	VISITDY	CCRESCAT	VISITDY	SREVAL							BEENDTC	BSBLFL	PFGENLOC	PGXFN					DXENDY	DESTDY					VISIT		REDIR
	DMDTC			CMROUTE	EPOCH	ECLAT	PRPORTOT	SUENDTC	AESEV	CEENRTPT	DSSTAT	DVREASND	HOENTPT	MHTPTREF	DAMODIFY	DDORNRHI	EGEVAL	IEORNRLO	VISITDY	LBLOINC	MBBLFL	VISIT	MIDIR	MOPORTOT	VISITNUM	PPMODIFY	PEREFID	QSTPT	RPLNKID	SCBODSYS	SSPOS	TUDTC	VISITDY	RSDY	VSDTC	CCSTNRLO	FADTC	VISITNUM							BESTDY	VISITNUM	PFGENSR	PGNAM					DXDUR	DEENDY					VISITDY		REMETHOD
	DMDY			CMSTDTC	EXSTDTC	ECDIR	VISITNUM	SUSTDY	AESER	CEENTPT	DSREASND	DVBODSYS	HOMODIFY	MHRFTDTC	DATSTDTL	DDSTRESN	VISITNUM	IEORNRHI	ISDTC	LBSPEC	MBDRVFL	VISITDY	MIMETHOD	MOMETHOD	VISIT	PPTSTDTL	PELNKID	QSTPTNUM	RPLNKGRP	SCORNRLO	SSBODSYS	TUDY	EPOCH	RSMODIFY	VSDY	CCSTNRHI	FADY	VISIT							BEENDY	VISIT	PFSTRESC	PGSPEC											AGSTDTC		REBLFL
	AGETXT			CMENDTC	EXENDTC	ECPORTOT	VISIT	SUENDY	AEACN	CEMODIFY	DSBODSYS	DVBDSYCD	HOLLT	MHLOC	DAPOS	DDSTRESU	VISIT	IESTRESN	ISDY	LBSPCCND	VISITNUM	MSDTC	MIBLFL	MOANMETH	VISITDY	PPPOS	PELNKGRP	QSELTM	RPMODIFY	SCORNRHI	SSORRESU	TULNKGRP	TRDTC	RSTSTDTL	VSTPT	CCSTNRC	FAREFID	VISITDY							BEDUR	VISITDY	PFSTRESN	PGSPCCND											AGENDTC		REDRVFL
	SETCD			CMSTDY	EXSTDY	ECFAST	VISITDY	SUDUR	AEACNOTH	CELLT	DSBDSYCD	DVSOC	HOLLTCD	MHLLT	DABODSYS	DDSTNRLO	VISITDY	IESTRESU	ISLNKID	LBMETHOD	VISIT	MSDY	MIEVAL	MOBLFL	PCDTC	PPBODSYS	PETSTDTL	QSTPTREF	RPTSTDTL	SCRESCAT	SSORNRLO	TUMODIFY	TRDY	RSSCAT	VSTPTNUM	CCNRIND	FATPT	SRDTC							BETPTREF	BSDTC	PFSTRESU	PGMETHOD											AGSTDY		REEVAL
	COUNTRY			CMENDY	EXENDY	ECPSTRG	PRSTDTC	SUSTRF	AEREL	CELLTCD	DSSOC	DVSOCCD	HOPTCD	MHLLTCD	DAORNRLO	DDSTNRHI	EGDTC	IERESCAT	ISLNKGRP	LBBLFL	VISITDY	MSTPT	VISITNUM	MODRVFL	PCENDTC	PPORNRLO	PEPOS	QSRFTDTC	RPPOS	SCSTNRLO	SSORNRHI	TUTSTDTL	TRMODIFY	RSPOS	VSELTM	CCSTAT	FATPTNUM	SRDY							BEELTM	BSDY	PFRSNUM	PGRUNID											AGENDY		REIRESFL
	VISIT			CMDUR	EXDUR	ECPSTRGU	PRENDTC	SUENRF	AERELNST	CEPTCD	DSSOCCD	DVLOC	HOHLT	MHPTCD	DAORNRHI	DDSTNRC	EGDY	IESTNRLO	ISMODIFY	LBFAST	MBDTC	MSTPTNUM	VISIT	MOEVAL	PCDY	PPORNRHI	PEORNRLO	QSEVLINT	RPBODSYS	SCSTNRHI	SSSTRESN	TUCAT	TRTSTDTL	RSBODSYS	VSTPTREF	CCREASND	FAELTM	SRTPT							BESTRTPT	BSTPT	PFALLELC	VISITNUM											AGDUR		VISITNUM
				CMSTRF	EXTPT	ECADJ	PRSTDY	SUSTRTPT	AEPATT	CEHLT	DSLOC	DVLAT	HOHLTCD	MHHLT	DARESCAT	DDNRIND	EGTPT	IESTNRHI	ISTSTDTL	LBDRVFL	MBDY	MSELTM	VISITDY	VISITNUM	PCTPT	PPRESCAT	PEORNRHI	QSREFID	RPORNRLO	SCSTNRC	SSSTRESU	TUSCAT	TRCAT	RSORRESU	VSRFTDTC	CCXFN	FATPTREF	SRTPTNUM							BESTTPT	BSTPTNUM	PFRESCAT	VISIT											AGSTRF		VISIT
				CMENRF	EXTPTNUM	EPOCH	PRENDY	SUSTTPT	AEOUT	CEHLTCD	DSLAT	DVDIR	HOHLGT	MHHLTCD	DASTNRLO	DDSTAT	EGTPTNUM	IESTNRC	ISPOS	LBTOX	MBTPT	MSTPTREF	MIDTC	VISIT	PCTPTNUM	PPSTNRLO	PESTRESN	QSLNKID	RPORNRHI	SCNRIND	SSRESCAT	TUPOS	TRSCAT	RSORNRLO	VSREFID	CCNAM	FARFTDTC	SRELTM							BETPT	BSELTM	PFSTAT	VISITDY											AGENRF		VISITDY
				CMSTRTPT	EXELTM	ECSTDTC	PRDUR	SUENRTPT	AESCAN	CEHLGT	DSDIR	DVPORTOT	HOHLGTCD	MHHLGT	DASTNRHI	DDREASND	EGELTM	IENRIND	ISBODSYS	LBTOXGR	MBTPTNUM	MSLNKID	MIDY	VISITDY	PCELTM	PPSTNRHI	PESTRESU	QSLNKGRP	RPRESCAT	SCXFN	SSSTNRLO	TUBODSYS	TRPOS	RSORNRHI	VSLNKID	CCLOINC	POOLID	SRTPTREF							BETPTNUM		PFREASND	PGDTC											AGSTRTPT		REDTC
				CMSTTPT	EXTPTREF	ECENDTC	PRTPT	SUENTPT	AESCONG	CEHLGTCD	DSPORTOT	DVPARTY	HOBODSYS	MHHLGTCD	DASTNRC	DDXFN	EGTPTREF	IESTAT	ISORNRLO	VISITNUM	MBELTM	MSLNKGRP	MILNKID	MODTC	PCTPTREF	PPSTNRC	PERESCAT	QSMODIFY	RPSTNRLO	SCNAM	SSSTNRHI	TUORRESU	TRBODSYS	RSSTRESN	VSLNKGRP	CCSPEC	SPDEVID	SRRFTDTC							BELAT		PFXFN	PGDY											AGSTTPT		REDY
				CMENRTPT	EXRFTDTC	ECSTDY	PRTPTNUM	SUREFID	AESDISAB	CEBDSYCD	DSPARTY	DVPRTYID	HOBDSYCD	MHSOC	DANRIND	DDNAM	EGRFTDTC	IEREASND	ISORNRHI	VISIT	MBTPTREF	MSMODIFY	MILNKGRP	MODY	PCRFTDTC	PPNRIND	PESTNRLO	QSTSTDTL	RPSTNRHI	SCLOINC	SSSTNRC	TUORNRLO	TRORNRLO	RSSTRESU	VSMODIFY	CCANTREG	FALNKID	POOLID							BEDIR		PFNAM	PGTPT											AGENRTPT		RETPT
				CMENTPT	EXMODIFY	ECENDY	PRELTM	SULNKID	AESDTH	CESOC	DSPRTYID	DVSEV	HOSOC	MHSOCCD	DAXFN	DDLOINC	EGLNKID	IEXFN	ISRESCAT	VISITDY	MBRFTDTC	MSTSTDTL	MIMODIFY	MOTPT	PCEVLINT	PPXFN	PESTNRHI	QSPOS	RPSTNRC	SCSPEC	SSNRIND	TUORNRHI	TRORNRHI	RSRESCAT	VSTSTDTL	CCSPCCND	FALNKGRP	SPDEVID							BEOCCUR		PFSPEC	PGTPTNUM											AGENTPT		RETPTNUM
				CMELTM	EXDECOD	ECDUR	PRTPTREF	SULNKGRP	AESHOSP	CESOCCD	DSSEV	DVSER	HOSOCCD	MHLAT	DANAM	DDSPEC	EGLNKGRP	IENAM	ISSTNRLO	LBDTC	MBLNKID	MSPOS	MIPOS	MOTPTNUM	PCLNKID	PPNAM	PESTNRC	QSBODSYS	RPNRIND	SCANTREG	SSXFN	TUSTRESN	TRRESCAT	RSSTNRLO	VSBODSYS	CCSPCUFL	TAETORD	SRLNKID									PFSPCCND												AGDTC		REELTM
				CMTPTREF	EXMOOD	ECTPT	PRRFTDTC	SUMOOD	AESLIFE	CELOC	DSSER	DVACN	HOLOC	MHDIR	DALOINC	DDANTREG	EGMODIFY	IELOINC	ISSTNRHI	LBENDTC	MBLNKGRP	MSBODSYS	MIBODSYS	MOELTM	PCLNKGRP	PPLOINC	PENRIND	QSORNRLO	RPXFN	SCSPCCND	SSNAM	TUSTRESU	TRSTNRLO	RSSTNRHI	VSORNRLO	CCLOC	EPOCH	SRLNKGRP									PFMUTYP												AGDY		RETPTREF
				CMRFTDTC	EXPRESP	ECTPTNUM	PRSTRTPT	SUINDC	AESOD	CELAT	DSACN	DVACNOTH	HOLAT	MHPORTOT	DASPEC	DDSPCCND	EGTSTDTL	IESPEC	ISSTNRC	LBDY	MBMODIFY	MSORNRLO	MIORNRLO	MOTPTREF	PCMODIFY	PPANTREG	PEXFN	QSORNRHI	RPNAM	SCSPCUFL	SSLOINC	TURESCAT	TRSTNRHI	RSSTNRC	VSORNRHI	CCLAT	FASTDTC	TAETORD									PFMETHOD												AGMOOD		RERFTDTC
				CMREFID	EXOCCUR	ECELTM	PRSTTPT	SUDOSRGM	AESMIE	CEDIR	DSACNOTH	DVACNDEV	HODIR	MHPARTY	DAANTREG	DDSPCUFL	EGBODSYS	IEANTREG	ISNRIND	LBTPT	MBTSTDTL	MSORNRHI	MIORNRHI	MORFTDTC	PCTSTDTL	PPSPCCND	PENAM	QSRESCAT	RPLOINC	SCLOC	SSSPEC	TUSTNRLO	TRSTNRC	RSNRIND	VSRESCAT	CCDIR	FAENDTC	EPOCH									PFRUNID												AGINDC		
				CMLNKID	EXSTAT	ECTPTREF	PRENRTPT	SULOT	AECONTRT	CEPORTOT	DSACNDEV	DVREL	HOPORTOT	MHPRTYID	DASPCCND	DDLOC	EGORNRLO	IESPCCND	ISXFN	LBTPTNUM	MBPOS	MSSTNRLO	MISTNRLO	MOLNKGRP	PCPOS	PPSPCUFL	PELOINC	QSSTNRLO	RPSPEC	SCLAT	SSANTREG	TUSTNRHI	TRNRIND	RSXFN	VSSTNRLO	CCPORTOT	FASTDY	SRSTDTC									PFANMETH												AGDOSTOT		
				CMLNKGRP	EXREASND	ECRFTDTC	PRENTPT	SULOC	AETOXGR	CEPARTY	DSREL	DVRELNST	HOPARTY	MHSEV	DASPCUFL	DDLAT	EGORNRHI	IESPCUFL	ISLOINC	LBELTM	MBBODSYS	MSSTNRHI	MISTNRHI	MOMODIFY	PCBODSYS	PPLOC	PESPEC	QSSTNRHI	RPANTREG	SCDIR	SSSPCCND	TUSTNRC	TRXFN	RSLOINC	VSSTNRHI	CCMETHOD	FAENDY	SRENDTC									PFBLFL												AGDOSRGM		
				CMMOOD	EXINDC	ECMODIFY	PRREFID	SULAT	AESTDTC	CEPRTYID	DSRELNST	DVPATT	HOPRTYID	MHSER	DALOC	DDDIR	EGRESCAT	IELOC	ISANTREG	LBTPTREF	MBORNRLO	MSSTNRC	MISTNRC	MOTSTDTL	PCORNRLO	PPLAT	PEANTREG	QSSTNRC	RPSPCCND	SCPORTOT	SSSPCUFL	TUNRIND	TRLOINC	RSSPEC	VSSTNRC	CCRUNID	FADUR	SRSTDY									PFDRVFL												AGLOT		
				CMLOT	EXCLAS	ECDECOD	PRMODIFY	SUDIR	AEENDTC	CESER	DSPATT	DVOUT	HOSEV	MHACN	DALAT	DDPORTOT	EGSTNRLO	IELAT	ISSPCCND	LBRFTDTC	MBORNRHI	MSNRIND	MINRIND	MOBODSYS	PCORNRHI	PPDIR	PESPCCND	QSNRIND	RPSPCUFL	SCMETHOD	SSLOC	TUSTAT	TRSPEC	RSANTREG	VSNRIND	CCANMETH	FASTRF	SRENDY									PFLLOQ												AGLOC		
				CMLOC	EXCLASCD	ECSTAT	PRMOOD	SUPORTOT	AESTDY	CEACN	DSOUT	DVSCAN	HOSER	MHACNOTH	DADIR	DDMETHOD	EGSTNRHI	IEDIR	ISSPCUFL	LBLNKID	MBSTNRLO	MSXFN	MIXFN	MOORNRLO	PCRESCAT	PPPORTOT	PESPCUFL	QSXFN	RPLOC	SCRUNID	SSLAT	TUREASND	TRANTREG	RSSPCCND	VSXFN	CCLEAD	FAENRF	SRDUR									VISITNUM												AGLAT		
				CMLAT	EXDOSTOT	ECREASND	PRSTAT	SUFAST	AEENDY	CEACNOTH	DSSCAN	DVSCONG	HOACN	MHACNDEV	DAPORTOT	DDRUNID	EGSTNRC	IEPORTOT	ISLOC	LBLNKGRP	MBSTNRHI	MSSPEC	MILOINC	MOORNRHI	PCSTNRLO	PPMETHOD	PELAT	QSNAM	RPLAT	SCANMETH	SSDIR	TUXFN	TRSPCCND	RSSPCUFL	VSNAM	CCCSTATE	FAEVLINT	SRSTRF									VISIT												AGDIR		
				CMDIR	EXPORTOT	ECINDC	PRREASND	SUPSTRG	AEDUR	CEACNDEV	DSSCONG	DVSDISAB	HOACNOTH	MHREL	DAMETHOD	DDANMETH	EGNRIND	IEMETHOD	ISLAT	LBMODIFY	MBSTNRC	MSANTREG	MIANTREG	MORESCAT	PCSTNRHI	PPRUNID	PEDIR	QSLOINC	RPDIR	SCLEAD	SSPORTOT	TULOINC	TRSPCUFL	RSLOC	VSLOINC	CCFAST	FAEVINTX	SRENRF									VISITDY												AGPORTOT		
				CMPORTOT	EXPSTRG	ECCLAS	PRCLAS	SUPSTRGU	AEENRF	CEREL	DSSDISAB	DVSDTH	HOACNDEV	MHRELNST	DARUNID	DDLEAD	EGLOINC	IERUNID	ISDIR	LBTSTDTL	MBNRIND	MSSPCCND	MISPCUFL	MOSTNRLO	PCSTNRC	PPANMETH	PEPORTOT	QSSPEC	RPPORTOT	SCCSTATE	SSMETHOD	TUSPEC	TRLOC	RSLAT	VSSPEC	CCBLFL	FASTRTPT	SREVLINT									PFDTC												AGFAST		
				CMFAST	EXPSTRGU	ECCLASCD	PRCLASCD	SUADJ	AEENRTPT	CERELNST	DSSDTH	DVSHOSP	HOREL	MHPATT	DAANMETH	DDCSTATE	EGSPEC	IEANMETH	ISPORTOT	LBPOS	MBXFN	MSSPCUFL	MIPORTOT	MOSTNRHI	PCNRIND	PPLEAD	PERUNID	QSANTREG	RPMETHOD	SCFAST	SSRUNID	TUANTREG	TRLAT	RSDIR	VSANTREG	CCDRVFL	FASTTPT	SREVINTX									PFSTDY												AGPSTRG		
				CMPSTRG	VISITNUM	VISITNUM	PRDOSTOT	EPOCH	AEENTPT	CEPATT	DSSHOSP	DVSLIFE	HORELNST	MHOUT	DALEAD	DDFAST	EGANTREG	IELEAD	ISRUNID	LBBODSYS	MBANTREG	MSLOC	MIRUNID	MOSTNRC	PCXFN	PPCSTATE	PEANMETH	QSSPCCND	RPRUNID	SCBLFL	SSANMETH	TUSPCCND	TRDIR	RSPORTOT	VSSPCCND	CCTOX	FAENRTPT	SRSTRTPT									PFDY												AGTRTV		
				CMPSTRGU	VISIT	VISIT	PRLOT	VISITNUM	AELAT	CEOUT	DSSLIFE	DVSOD	HOPATT	MHSCAN	DACSTATE	DDBLFL	EGSPCCND	IECSTATE	ISANMETH	LBRESCAT	MBSPCUFL	MSLAT	MIANMETH	MONRIND	PCLOINC	PPFAST	PELEAD	QSSPCUFL	RPANMETH	SCDRVFL	SSLEAD	TUSPCUFL	TRPORTOT	RSMETHOD	VSSPCUFL	CCTOXGR	FAENTPT	SRSTTPT									PFTPT												AGVAMT		
				CMADJ	VISITDY	VISITDY	PRFAST	VISIT	AEDIR	CESCAN	DSSOD	DVSMIE	HOOUT	MHSCONG	DAFAST	DDDRVFL	EGSPCUFL	IEFAST	ISLEAD	LBXFN	MBLAT	MSDIR	MILEAD	MOLOINC	PCSPEC	PPBLFL	PECSTATE	QSLOC	RPLEAD	SCTOX	SSCSTATE	TURUNID	TRRUNID	RSRUNID	VSDIR	CCEVAL	FASTINT	SRENRTPT									PFTPTNUM												AGVAMTU		
				EPOCH	EXSTRF	ECSTRF	PRPSTRG	VISITDY	AEPORTOT	CESCONG	DSSMIE	DVCONTRT	HOSCAN	MHSDISAB	DABLFL	DDTOX	EGLOC	IEBLFL	ISCSTATE	LBANTREG	MBDIR	MSPORTOT	MICSTATE	MOSPEC	PCANTREG	PPDRVFL	PEFAST	QSLAT	RPCSTATE	SCTOXGR	SSFAST	TUANMETH	TRANMETH	RSANMETH	VSPORTOT	CCEVALID	FAENINT	SRENTPT									PFELTM												AGADJ		
				VISITNUM	EXENRF	ECENRF	PRPSTRGU	SUTPT	AEPARTY	CESDISAB	DSCONTRT	DVTOX	HOSCONG	MHSDTH	DADRVFL	DDTOXGR	EGLAT	IEDRVFL	ISFAST	LBSPCUFL	MBPORTOT	MSRUNID	MIFAST	MOANTREG	PCSPCUFL	PPTOX	PEBLFL	QSDIR	RPFAST	SCEVAL	SSBLFL	TULEAD	TRLEAD	RSLEAD	VSMETHOD	CCACPTFL		SRSTINT									PFTPTREF												POOLID		
				VISIT	EXSTRTPT	ECSTRTPT	PRADJ	SUTPTNUM	AEPRTYID	CESDTH	DSTOX	DVTOXGR	HOSDISAB	MHSHOSP	DATOX	DDEVALID	EGDIR	IETOX	ISDRVFL	LBLOC	MBRUNID	MSANMETH	MIDRVFL	MOSPCCND	PCLOC	PPTOXGR	PEDRVFL	QSPORTOT	RPTOX	SCEVALID	SSDRVFL	TUCSTATE	TRCSTATE	RSCSTATE	VSRUNID	CCSEV		SRENINT									PFRFTDTC												SPDEVID		
				VISITDY	EXSTTPT	ECSTTPT	EPOCH	SUELTM	AEACNDEV	CESHOSP	DSTOXGR	DVDTC	HOSDTH	MHSLIFE	DATOXGR	DDACPTFL	EGPORTOT	IETOXGR	ISTOX	LBLAT	MBANMETH	MSLEAD	MITOX	MOSPCUFL	PCLAT	PPEVAL	PETOX	QSMETHOD	RPTOXGR	SCACPTFL	SSTOX	TUFAST	TRFAST	RSFAST	VSANMETH	CCDTHREL											PFREPNUM												AGREFID		
				CMTPT	EXENRTPT	ECENRTPT	PRSTRF	SUTPTREF	AETOX	CESLIFE	DSENDTC	DVDY	HOSHOSP	MHSOD	DAEVAL	DDSEV	EGRUNID	IEEVAL	ISTOXGR	LBDIR	MBLEAD	MSCSTATE	MITOXGR	MORUNID	PCDIR	PPEVALID	PETOXGR	QSRUNID	RPEVAL	SCSEV	SSTOXGR	TUBLFL	TRBLFL	RSBLFL	VSLEAD	CCLLOQ																							AGLNKID		
				CMTPTNUM	EXENTPT	ECENTPT	PRENRF	SURFTDTC	EPOCH	CESOD	DSDY	DVSTDY	HOSLIFE	MHSMIE	DAEVALID	DDDTHREL	EGANMETH	IEEVALID	ISEVAL	LBPORTOT	MBCSTATE	MSFAST	MIEVALID	MOLEAD	PCPORTOT	PPACPTFL	PEEVALID	QSANMETH	RPEVALID	SCDTHREL	SSEVALID	TUDRVFL	TRDRVFL	RSDRVFL	VSCSTATE	CCULOQ																							AGLNKGRP		
				CMTRTV	EXTRTV	ECTRTV	PRTRTV	SUTRTV	AEDTC	CESMIE	DSENDY	DVENDY	HOSOD	MHCONTRT	DAACPTFL	DDLLOQ	EGCSTATE	IEACPTFL	ISEVALID	LBRUNID	MBFAST	MSTOX	MIACPTFL	MOCSTATE	PCRUNID	PPSEV	PEACPTFL	QSLEAD	RPACPTFL	SCLLOQ	SSACPTFL	TUTOX	TRTOX	RSTOX	VSFAST	VISITNUM																							TAETORD		
				CMVAMT	EXVAMT	ECVAMT	PRVAMT	SUVAMT	AESTRF	CECONTRT	DSSTRF	DVSTRF	HOSMIE	MHTOX	DASEV	DDULOQ	EGFAST	IESEV	ISACPTFL	LBANMETH	MBTOX	MSTOXGR	MISEV	MOFAST	PCANMETH	PPDTHREL	PESEV	QSCSTATE	RPSEV	SCULOQ	SSSEV	TUTOXGR	TRTOXGR	RSTOXGR	VSTOX	VISIT																							EPOCH		
				CMVAMTU	EXVAMTU	ECVAMTU	PRVAMTU	SUVAMTU	AESTRTPT	CETOX	DSDUR	DVDUR	HOCONTRT	MHTOXGR	DADTHREL	VISITNUM	EGTOX	IEDTHREL	ISSEV	LBLEAD	MBTOXGR	MSEVAL	MIDTHREL	MOTOX	PCLEAD	PPLLOQ	PEDTHREL	QSFAST	RPDTHREL	VISITNUM	SSDTHREL	TUSEV	TRSEV	RSSEV	VSTOXGR	VISITDY																							AGTPT		
				POOLID	POOLID	POOLID	POOLID	POOLID	AESTTPT	CETOXGR	DSENRF	DVENRF	HOTOX	EPOCH	DALLOQ	VISIT	EGTOXGR	IELLOQ	ISDTHREL	LBCSTATE	MBEVAL	MSEVALID	MILLOQ	MOTOXGR	PCCSTATE	PPULOQ	PELLOQ	QSTOX	RPLLOQ	VISIT	SSLLOQ	TUDTHREL	TRDTHREL	RSDTHREL	VSEVAL	EPOCH																							AGTPTNUM		
				SPDEVID	SPDEVID	SPDEVID	SPDEVID	SPDEVID	POOLID	EPOCH	DSSTRTPT	DVSTRTPT	HOTOXGR	MHSTDY	DAULOQ	VISITDY	EGEVALID	IEULOQ	ISULOQ	LBEVAL	MBEVALID	MSACPTFL	MIULOQ	MOEVALID	PCFAST	VISITNUM	PEULOQ	QSTOXGR	RPULOQ	VISITDY	SSULOQ	TULLOQ	TRLLOQ	RSLLOQ	VSEVALID	CCDTC																							AGELTM		
				TAETORD	TAETORD	TAETORD	TAETORD	TAETORD	SPDEVID	CESTDY	DSSTTPT	DVSTTPT	EPOCH	MHENDY	EPOCH	EPOCH	EGACPTFL	EPOCH	EPOCH	LBEVALID	MBACPTFL	MSSEV	EPOCH	MOACPTFL	PCBLFL	VISIT	EPOCH	QSEVALID	EPOCH	EPOCH	EPOCH	TUULOQ	TRULOQ	RSULOQ	VSACPTFL	CCENDTC																							AGTPTREF		
				CMDTC	EXDTC	ECDTC	PRDTC	SUDTC	AELNKID	CEENDY	DSENRTPT	DVENRTPT	HOSTRF	MHSTRF	DAENDTC	DDENDTC	EGSEV	IEENDTC	ISENDTC	LBACPTFL	MBSEV	MSDTHREL	MIENDTC	MOSEV	PCTOX	VISITDY	PEENDTC	QSACPTFL	RPENDTC	SCENDTC	SSENDTC	TUENDTC	TRENDTC	RSENDTC	VSSEV	CCRFTDTC																							AGRFTDTC		
				CMDY	EXDY	ECDY	PRDY	SUDY	AELNKGRP	CEDUR	DSENTPT	DVENTPT	HOENRF	MHDUR	DARFTDTC	DDRFTDTC	EGDTHREL	IERFTDTC	ISRFTDTC	LBSEV	MBDTHREL	MSLLOQ	MIRFTDTC	MODTHREL	PCTOXGR	EPOCH	PERFTDTC	QSSEV	RPRFTDTC	SCRFTDTC	SSRFTDTC	TURFTDTC	TRRFTDTC	RSRFTDTC	VSDTHREL	CCDY																							AGEVLINT		
				CMEVLINT	EXEVLINT	ECEVLINT	PREVLINT	SUEVLINT	VISITNUM	POOLID	POOLID	POOLID	POOLID	MHSTTPT	DATPT	DDTPT	EGLLOQ	IETPT	ISTPT	LBDTHREL	MBLLOQ	MSULOQ	MITPT	MOLLOQ	PCEVAL	PPENDTC	PETPT	QSDTHREL	RPTPT	SCTPT	SSTPT	TUTPT	TRTPT	RSTPT	VSLLOQ	CCTPT																							AGEVINTX		
				CMEVINTX	EXEVINTX	ECEVINTX	PREVINTX	SUEVINTX	VISIT	SPDEVID	SPDEVID	SPDEVID	SPDEVID	POOLID	DATPTNUM	DDTPTNUM	EGULOQ	IETPTNUM	ISTPTNUM	LBLLOQ	MBULOQ	EPOCH	MITPTNUM	MOULOQ	PCEVALID	PPDY	PETPTNUM	QSLLOQ	RPTPTNUM	SCTPTNUM	SSTPTNUM	TUTPTNUM	TRTPTNUM	RSTPTNUM	VSULOQ	CCTPTNUM																							AGSTINT		
				CMSTINT	EXSTINT	ECSTINT	PRSTINT	SUSTINT	VISITDY	CELNKID	DSLNKID	DVLNKID	HOLNKID	SPDEVID	DAELTM	DDELTM	EPOCH	IEELTM	ISELTM	LBULOQ	EPOCH	MSENDTC	MIELTM	EPOCH	PCACPTFL	PPTPT	PEELTM	QSULOQ	RPELTM	SCELTM	SSELTM	TUELTM	TRELTM	RSELTM	EPOCH	CCELTM																							AGENINT		
				CMENINT	EXENINT	ECENINT	PRENINT	SUENINT	TAETORD	CELNKGRP	DSLNKGRP	DVLNKGRP	HOLNKGRP	MHLNKID	DATPTREF	DDTPTREF	EGENDTC	IETPTREF	ISTPTREF	EPOCH	MBENDTC	MSRFTDTC	MITPTREF	MOENDTC	PCSEV	PPTPTNUM	PETPTREF	EPOCH	RPTPTREF	SCTPTREF	SSTPTREF	TUTPTREF	TRTPTREF	RSTPTREF	VSENDTC	CCTPTREF																									
				CMDETECT	EXDETECT	ECDETECT	PRDETECT	SUDETECT	AETPT	VISITNUM	VISITNUM	VISITNUM	VISITNUM	MHLNKGRP	DAEVLINT	DDEVLINT	EGEVLINT	IEEVLINT	ISEVLINT	LBEVLINT	MBEVLINT	MSEVLINT	MIEVLINT	MOEVLINT	PCDTHREL	PPELTM	PEEVLINT	QSENDTC	RPEVLINT	SCEVLINT	SSEVLINT	TUEVLINT	TREVLINT	RSEVLINT	VSEVLINT	CCEVLINT																									
									AETPTNUM	VISIT	VISIT	VISIT	VISIT	VISITNUM	DASTINT	DDSTINT	EGSTINT	IESTINT	ISSTINT	LBSTINT	MBSTINT	MSSTINT	MISTINT	MOSTINT	EPOCH	PPTPTREF	PESTINT	QSSTINT	RPSTINT	SCSTINT	SSSTINT	TUSTINT	TRSTINT	RSSTINT	VSSTINT	CCSTINT																									
									AEELTM	VISITDY	VISITDY	VISITDY	VISITDY	VISIT	DAENINT	DDENINT	EGENINT	IEENINT	ISENINT	LBENINT	MBENINT	MSENINT	MIENINT	MOENINT	PCRFTDTC	PPEVLINT	PEENINT	QSENINT	RPENINT	SCENINT	SSENINT	TUENINT	TRENINT	RSENINT	VSENINT	CCENINT																									
									AETPTREF	TAETORD	TAETORD	TAETORD	TAETORD	VISITDY	DAEXCLFL	DDEXCLFL	EGEXCLFL	IEEXCLFL	ISEXCLFL	LBEXCLFL	MBEXCLFL	MSEXCLFL	MIEXCLFL	MOEXCLFL	PCSTINT	PPEXCLFL	PEEXCLFL	QSEXCLFL	RPEXCLFL	SCEXCLFL	SSEXCLFL	TUEXCLFL	TREXCLFL	RSEXCLFL	VSEXCLFL	CCEXCLFL																									
									AERFTDTC	CETPT	DSTPT	DVTPT	HOTPT	TAETORD	DAREASEX	DDREASEX	EGREASEX	IEREASEX	ISREASEX	LBREASEX	MBREASEX	MSREASEX	MIREASEX	MOREASEX	PCENINT	PPREASEX	PEREASEX	QSREASEX	RPREASEX	SCREASEX	SSREASEX	TUREASEX	TRREASEX	RSREASEX	VSREASEX	CCREASEX																									
									AEEVLINT	CETPTNUM	DSTPTNUM	DVTPTNUM	HOTPTNUM	MHTPT	POOLID	POOLID	POOLID	POOLID	POOLID	POOLID	POOLID	POOLID	POOLID	POOLID	PCEXCLFL	POOLID	POOLID	POOLID	POOLID	POOLID	POOLID	POOLID	POOLID	POOLID	POOLID	POOLID																									
									AEEVINTX	CEELTM	DSELTM	DVELTM	HOELTM	MHTPTNUM	SPDEVID	SPDEVID	SPDEVID	SPDEVID	SPDEVID	SPDEVID	SPDEVID	SPDEVID	SPDEVID	SPDEVID	PCREASEX	SPDEVID	SPDEVID	SPDEVID	SPDEVID	SPDEVID	SPDEVID	SPDEVID	SPDEVID	SPDEVID	SPDEVID	SPDEVID																									
									AESTINT	CETPTREF	DSTPTREF	DVTPTREF	HOTPTREF	MHEVLINT	TAETORD	TAETORD	TAETORD	TAETORD	TAETORD	TAETORD	TAETORD	TAETORD	TAETORD	TAETORD	POOLID	TAETORD	TAETORD	TAETORD	TAETORD	TAETORD	TAETORD	TAETORD	TAETORD	TAETORD	TAETORD	TAETORD																									
									AEENINT	CERFTDTC	DSRFTDTC	DVRFTDTC	HORFTDTC	MHEVINTX	DASTDTC	DDSTDTC	EGSTDTC	IESTDTC	ISSTDTC	LBSTDTC	MBSTDTC	MSSTDTC	MISTDTC	MOSTDTC	SPDEVID	PPSTDTC	PESTDTC	QSSTDTC	RPSTDTC	SCSTDTC	SSSTDTC	TUSTDTC	TRSTDTC	RSSTDTC	VSSTDTC	CCSTDTC																									
										CEEVLINT	DSEVLINT	DVEVLINT	HOEVLINT	MHSTINT	DASTDY	DDSTDY	EGSTDY	IESTDY	ISSTDY	LBSTDY	MBSTDY	MSSTDY	MISTDY	MOSTDY	TAETORD	PPSTDY	PESTDY	QSSTDY	RPSTDY	SCSTDY	SSSTDY	TUSTDY	TRSTDY	RSSTDY	VSSTDY	CCSTDY																									
										CEEVINTX	DSEVINTX	DVEVINTX	HOEVINTX	MHENINT	DAENDY	DDENDY	EGENDY	IEENDY	ISENDY	LBENDY	MBENDY	MSENDY	MIENDY	MOENDY	PCSTDTC	PPENDY	PEENDY	QSENDY	RPENDY	SCENDY	SSENDY	TUENDY	TRENDY	RSENDY	VSENDY	CCENDY																									
										CESTINT	DSSTINT	DVSTINT	HOSTINT	MHSTRTPT	DADUR	DDDUR	EGENRF	IEDUR	ISDUR	LBDUR	MBDUR	MSDUR	MIDUR	MODUR	PCSTDY	PPDUR	PEDUR	QSDUR	RPDUR	SCDUR	SSDUR	TUDUR	TRDUR	RSDUR	VSDUR	CCDUR																									
										CEENINT	DSENINT	DVENINT	HOENINT		DAEVINTX	DDEVINTX	EGEVINTX	IEEVINTX	ISEVINTX	LBEVINTX	MBEVINTX	MSEVINTX	MIEVINTX	MOEVINTX	PCENDY	PPEVINTX	PEEVINTX	QSEVINTX	RPEVINTX	SCEVINTX	SSEVINTX	TUEVINTX	TREVINTX	RSEVINTX	VSEVINTX	CCEVINTX																									
															DASTRTPT	DDSTRTPT	EGSTRTPT	IESTRTPT	ISSTRTPT	LBSTRTPT	MBSTRTPT	MSSTRTPT	MISTRTPT	MOSTRTPT	PCDUR	PPSTRTPT	PESTRTPT	QSSTRTPT	RPSTRTPT	SCSTRTPT	SSSTRTPT	TUSTRTPT	TRSTRTPT	RSSTRTPT	VSSTRTPT	CCSTRTPT																									
															DASTTPT	DDSTTPT	EGSTTPT	IESTTPT	ISSTTPT	LBSTTPT	MBSTTPT	MSSTTPT	MISTTPT	MOSTTPT	PCEVINTX	PPSTTPT	PESTTPT	QSSTTPT	RPSTTPT	SCSTTPT	SSSTTPT	TUSTTPT	TRSTTPT	RSSTTPT	VSSTTPT	CCSTTPT																									
															DAENRTPT	DDENRTPT	EGENRTPT	IEENRTPT	ISENRTPT	LBENRTPT	MBENRTPT	MSENRTPT	MIENRTPT	MOENRTPT	PCSTRTPT	PPENRTPT	PEENRTPT	QSENRTPT	RPENRTPT	SCENRTPT	SSENRTPT	TUENRTPT	TRENRTPT	RSENRTPT	VSENRTPT	CCENRTPT																									
															DAENTPT	DDENTPT	EGENTPT	IEENTPT	ISENTPT	LBENTPT	MBENTPT	MSENTPT	MIENTPT	MOENTPT	PCSTTPT	PPENTPT	PEENTPT	QSENTPT	RPENTPT	SCENTPT	SSENTPT	TUENTPT	TRENTPT	RSENTPT	VSENTPT	CCENTPT																									
																									PCENRTPT																																				
																									PCENTPT																																				
