STUDYID	DOMAIN	USUBJID	MBSEQ	MBTESTCD	MBTEST	MBORRES	MBSTRESC	MBSPEC	MBMETHOD	MBDY
GSE26952	MB	PS-00022	1	SAUREUS	STAPHYLOCOCCUS AUREUS PRESENT	NEGATIVE	NO GROWTH	SKIN	MICROBIAL CULTURE, SOLID	1
GSE26952	MB	PS-00023	1	SAUREUS	STAPHYLOCOCCUS AUREUS PRESENT	NEGATIVE	NO GROWTH	SKIN	MICROBIAL CULTURE, SOLID	1
GSE26952	MB	PS-00024	1	SAUREUS	STAPHYLOCOCCUS AUREUS PRESENT	NEGATIVE	NO GROWTH	SKIN	MICROBIAL CULTURE, SOLID	1
GSE26952	MB	PS-00025	1	SAUREUS	STAPHYLOCOCCUS AUREUS PRESENT	NEGATIVE	NO GROWTH	SKIN	MICROBIAL CULTURE, SOLID	1
