STUDYID	DOMAIN	USUBJID	SSSEQ	SSTESTCD	SSTEST	SSORRES	SSSTRESC	SSLNKID	SSSTRTPT	SSSTTPT
GSE30768	SS	PS-01793	1	DISSTAT	Disease Status	RELAPSE	RELAPSE	E1	AFTER	END OF TREATMENT
GSE30768	SS	PS-01794	1	DISSTAT	Disease Status	RELAPSE	RELAPSE	E1	AFTER	END OF TREATMENT
GSE30768	SS	PS-01795	1	DISSTAT	Disease Status	RELAPSE	RELAPSE	E1	AFTER	END OF TREATMENT
GSE30768	SS	PS-01796	1	DISSTAT	Disease Status	RELAPSE	RELAPSE	E1	AFTER	END OF TREATMENT
