STUDYID	DOMAIN	USUBJID	MHSEQ	MHGRPID	MHREFID	MHSPID	MHTERM	MHMODIFY	MHDECOD	MHCAT	MHSCAT	MHPRESP	MHOCCUR	MHSTAT	MHREASND	MHBODSYS	MHDTC	MHSTDTC	MHENDTC	MHDY	MHENRF	MHENRTPT	MHENTPT	MHELTM	MHTPTREF	MHRFTDTC	MHLOC	MHLLT	MHLLTCD	MHPTCD	MHHLT	MHHLTCD	MHHLGT	MHHLGTCD	MHSOC	MHSOCCD	MHLAT	MHDIR	MHPORTOT	MHPARTY	MHPRTYID	MHSEV	MHSER	MHACN	MHACNOTH	MHACNDEV	MHREL	MHRELNST	MHPATT	MHOUT	MHSCAN	MHSCONG	MHSDISAB	MHSDTH	MHSHOSP	MHSLIFE	MHSOD	MHSMIE	MHCONTRT	MHTOX	MHTOXGR	EPOCH	MHSTDY	MHENDY	MHSTRF	MHDUR	MHSTTPT	POOLID	SPDEVID	MHLNKID	MHLNKGRP	VISITNUM	VISIT	VISITDY	TAETORD	MHTPT	MHTPTNUM	MHEVLINT	MHEVINTX	MHSTINT	MHENINT
phs000100.v3.p1, The Finland-United States Investigation of NIDDM Genetics (FUSION) Study	MH	phs000100-T2D-001048	1				TYPE 2 DIABETES		Diabetes Mellitus Type 2		DIABETES		Y							1																																																				1									
phs000100.v3.p1, The Finland-United States Investigation of NIDDM Genetics (FUSION) Study	MH	phs000100-T2D-001049	1				TYPE 2 DIABETES		Diabetes Mellitus Type 2		DIABETES		Y							1																																																				1									
phs000100.v3.p1, The Finland-United States Investigation of NIDDM Genetics (FUSION) Study	MH	phs000100-T2D-001050	1				TYPE 2 DIABETES		Diabetes Mellitus Type 2		DIABETES		N							1																																																				1									
phs000100.v3.p1, The Finland-United States Investigation of NIDDM Genetics (FUSION) Study	MH	phs000100-T2D-001051	1				TYPE 2 DIABETES		Diabetes Mellitus Type 2		DIABETES		Y							1																																																				1									
phs000100.v3.p1, The Finland-United States Investigation of NIDDM Genetics (FUSION) Study	MH	phs000100-T2D-001052	1				TYPE 2 DIABETES		Diabetes Mellitus Type 2		DIABETES		N							1																																																				1									
phs000100.v3.p1, The Finland-United States Investigation of NIDDM Genetics (FUSION) Study	MH	phs000100-T2D-001053	1				TYPE 2 DIABETES		Diabetes Mellitus Type 2		DIABETES		N							1																																																				1									
phs000100.v3.p1, The Finland-United States Investigation of NIDDM Genetics (FUSION) Study	MH	phs000100-T2D-001054	1				TYPE 2 DIABETES		Diabetes Mellitus Type 2		DIABETES		N							1																																																				1									
phs000100.v3.p1, The Finland-United States Investigation of NIDDM Genetics (FUSION) Study	MH	phs000100-T2D-001055	1				TYPE 2 DIABETES		Diabetes Mellitus Type 2		DIABETES		N							1																																																				1									
phs000100.v3.p1, The Finland-United States Investigation of NIDDM Genetics (FUSION) Study	MH	phs000100-T2D-001056	1				TYPE 2 DIABETES		Diabetes Mellitus Type 2		DIABETES		N							1																																																				1									
phs000100.v3.p1, The Finland-United States Investigation of NIDDM Genetics (FUSION) Study	MH	phs000100-T2D-001057	1				TYPE 2 DIABETES		Diabetes Mellitus Type 2		DIABETES		N							1																																																				1									
phs000100.v3.p1, The Finland-United States Investigation of NIDDM Genetics (FUSION) Study	MH	phs000100-T2D-001058	1				TYPE 2 DIABETES		Diabetes Mellitus Type 2		DIABETES		Y							1																																																				1									
phs000100.v3.p1, The Finland-United States Investigation of NIDDM Genetics (FUSION) Study	MH	phs000100-T2D-001059	1				TYPE 2 DIABETES		Diabetes Mellitus Type 2		DIABETES		Y							1																																																				1									
phs000100.v3.p1, The Finland-United States Investigation of NIDDM Genetics (FUSION) Study	MH	phs000100-T2D-001060	1				TYPE 2 DIABETES		Diabetes Mellitus Type 2		DIABETES		N							1																																																				1									
phs000100.v3.p1, The Finland-United States Investigation of NIDDM Genetics (FUSION) Study	MH	phs000100-T2D-001061	1				TYPE 2 DIABETES		Diabetes Mellitus Type 2		DIABETES		Y							1																																																				1									
phs000100.v3.p1, The Finland-United States Investigation of NIDDM Genetics (FUSION) Study	MH	phs000100-T2D-001062	1				TYPE 2 DIABETES		Diabetes Mellitus Type 2		DIABETES		N							1																																																				1									
phs000100.v3.p1, The Finland-United States Investigation of NIDDM Genetics (FUSION) Study	MH	phs000100-T2D-001063	1				TYPE 2 DIABETES		Diabetes Mellitus Type 2		DIABETES		N							1																																																				1									
phs000100.v3.p1, The Finland-United States Investigation of NIDDM Genetics (FUSION) Study	MH	phs000100-T2D-001064	1				TYPE 2 DIABETES		Diabetes Mellitus Type 2		DIABETES		Y							1																																																				1									
phs000100.v3.p1, The Finland-United States Investigation of NIDDM Genetics (FUSION) Study	MH	phs000100-T2D-001065	1				TYPE 2 DIABETES		Diabetes Mellitus Type 2		DIABETES		N							1																																																				1									
phs000100.v3.p1, The Finland-United States Investigation of NIDDM Genetics (FUSION) Study	MH	phs000100-T2D-001066	1				TYPE 2 DIABETES		Diabetes Mellitus Type 2		DIABETES		N							1																																																				1									
phs000100.v3.p1, The Finland-United States Investigation of NIDDM Genetics (FUSION) Study	MH	phs000100-T2D-001067	1				TYPE 2 DIABETES		Diabetes Mellitus Type 2		DIABETES		N							1																																																				1									
phs000100.v3.p1, The Finland-United States Investigation of NIDDM Genetics (FUSION) Study	MH	phs000100-T2D-001068	1				TYPE 2 DIABETES		Diabetes Mellitus Type 2		DIABETES		Y							1																																																				1									
phs000100.v3.p1, The Finland-United States Investigation of NIDDM Genetics (FUSION) Study	MH	phs000100-T2D-001069	1				TYPE 2 DIABETES		Diabetes Mellitus Type 2		DIABETES		Y							1																																																				1									
phs000100.v3.p1, The Finland-United States Investigation of NIDDM Genetics (FUSION) Study	MH	phs000100-T2D-001070	1				TYPE 2 DIABETES		Diabetes Mellitus Type 2		DIABETES		N							1																																																				1									
phs000100.v3.p1, The Finland-United States Investigation of NIDDM Genetics (FUSION) Study	MH	phs000100-T2D-001071	1				TYPE 2 DIABETES		Diabetes Mellitus Type 2		DIABETES		N							1																																																				1									
phs000100.v3.p1, The Finland-United States Investigation of NIDDM Genetics (FUSION) Study	MH	phs000100-T2D-001072	1				TYPE 2 DIABETES		Diabetes Mellitus Type 2		DIABETES		Y							1																																																				1									
phs000100.v3.p1, The Finland-United States Investigation of NIDDM Genetics (FUSION) Study	MH	phs000100-T2D-001073	1				TYPE 2 DIABETES		Diabetes Mellitus Type 2		DIABETES		N							1																																																				1									
phs000100.v3.p1, The Finland-United States Investigation of NIDDM Genetics (FUSION) Study	MH	phs000100-T2D-001074	1				TYPE 2 DIABETES		Diabetes Mellitus Type 2		DIABETES		Y							1																																																				1									
phs000100.v3.p1, The Finland-United States Investigation of NIDDM Genetics (FUSION) Study	MH	phs000100-T2D-001075	1				TYPE 2 DIABETES		Diabetes Mellitus Type 2		DIABETES		Y							1																																																				1									
phs000100.v3.p1, The Finland-United States Investigation of NIDDM Genetics (FUSION) Study	MH	phs000100-T2D-001076	1				TYPE 2 DIABETES		Diabetes Mellitus Type 2		DIABETES		Y							1																																																				1									
phs000100.v3.p1, The Finland-United States Investigation of NIDDM Genetics (FUSION) Study	MH	phs000100-T2D-001077	1				TYPE 2 DIABETES		Diabetes Mellitus Type 2		DIABETES		N							1																																																				1									
phs000100.v3.p1, The Finland-United States Investigation of NIDDM Genetics (FUSION) Study	MH	phs000100-T2D-001078	1				TYPE 2 DIABETES		Diabetes Mellitus Type 2		DIABETES		Y							1																																																				1									
phs000100.v3.p1, The Finland-United States Investigation of NIDDM Genetics (FUSION) Study	MH	phs000100-T2D-001079	1				TYPE 2 DIABETES		Diabetes Mellitus Type 2		DIABETES		Y							1																																																				1									
phs000100.v3.p1, The Finland-United States Investigation of NIDDM Genetics (FUSION) Study	MH	phs000100-T2D-001080	1				TYPE 2 DIABETES		Diabetes Mellitus Type 2		DIABETES		Y							1																																																				1									
phs000100.v3.p1, The Finland-United States Investigation of NIDDM Genetics (FUSION) Study	MH	phs000100-T2D-001081	1				TYPE 2 DIABETES		Diabetes Mellitus Type 2		DIABETES		N							1																																																				1									
phs000100.v3.p1, The Finland-United States Investigation of NIDDM Genetics (FUSION) Study	MH	phs000100-T2D-001082	1				TYPE 2 DIABETES		Diabetes Mellitus Type 2		DIABETES		Y							1																																																				1									
phs000100.v3.p1, The Finland-United States Investigation of NIDDM Genetics (FUSION) Study	MH	phs000100-T2D-001083	1				TYPE 2 DIABETES		Diabetes Mellitus Type 2		DIABETES		Y							1																																																				1									
phs000100.v3.p1, The Finland-United States Investigation of NIDDM Genetics (FUSION) Study	MH	phs000100-T2D-001084	1				TYPE 2 DIABETES		Diabetes Mellitus Type 2		DIABETES		Y							1																																																				1									
phs000100.v3.p1, The Finland-United States Investigation of NIDDM Genetics (FUSION) Study	MH	phs000100-T2D-001085	1				TYPE 2 DIABETES		Diabetes Mellitus Type 2		DIABETES		N							1																																																				1									
phs000100.v3.p1, The Finland-United States Investigation of NIDDM Genetics (FUSION) Study	MH	phs000100-T2D-001086	1				TYPE 2 DIABETES		Diabetes Mellitus Type 2		DIABETES		Y							1																																																				1									
phs000100.v3.p1, The Finland-United States Investigation of NIDDM Genetics (FUSION) Study	MH	phs000100-T2D-001087	1				TYPE 2 DIABETES		Diabetes Mellitus Type 2		DIABETES		N							1																																																				1									
phs000100.v3.p1, The Finland-United States Investigation of NIDDM Genetics (FUSION) Study	MH	phs000100-T2D-001088	1				TYPE 2 DIABETES		Diabetes Mellitus Type 2		DIABETES		Y							1																																																				1									
phs000100.v3.p1, The Finland-United States Investigation of NIDDM Genetics (FUSION) Study	MH	phs000100-T2D-001089	1				TYPE 2 DIABETES		Diabetes Mellitus Type 2		DIABETES		Y							1																																																				1									
phs000100.v3.p1, The Finland-United States Investigation of NIDDM Genetics (FUSION) Study	MH	phs000100-T2D-001090	1				TYPE 2 DIABETES		Diabetes Mellitus Type 2		DIABETES		Y							1																																																				1									
phs000100.v3.p1, The Finland-United States Investigation of NIDDM Genetics (FUSION) Study	MH	phs000100-T2D-001091	1				TYPE 2 DIABETES		Diabetes Mellitus Type 2		DIABETES		N							1																																																				1									
phs000100.v3.p1, The Finland-United States Investigation of NIDDM Genetics (FUSION) Study	MH	phs000100-T2D-001092	1				TYPE 2 DIABETES		Diabetes Mellitus Type 2		DIABETES		N							1																																																				1									
phs000100.v3.p1, The Finland-United States Investigation of NIDDM Genetics (FUSION) Study	MH	phs000100-T2D-001093	1				TYPE 2 DIABETES		Diabetes Mellitus Type 2		DIABETES		Y							1																																																				1									
phs000100.v3.p1, The Finland-United States Investigation of NIDDM Genetics (FUSION) Study	MH	phs000100-T2D-001094	1				TYPE 2 DIABETES		Diabetes Mellitus Type 2		DIABETES		N							1																																																				1									
phs000100.v3.p1, The Finland-United States Investigation of NIDDM Genetics (FUSION) Study	MH	phs000100-T2D-001095	1				TYPE 2 DIABETES		Diabetes Mellitus Type 2		DIABETES		N							1																																																				1									
phs000100.v3.p1, The Finland-United States Investigation of NIDDM Genetics (FUSION) Study	MH	phs000100-T2D-001096	1				TYPE 2 DIABETES		Diabetes Mellitus Type 2		DIABETES		Y							1																																																				1									
phs000100.v3.p1, The Finland-United States Investigation of NIDDM Genetics (FUSION) Study	MH	phs000100-T2D-001097	1				TYPE 2 DIABETES		Diabetes Mellitus Type 2		DIABETES		N							1																																																				1									
phs000100.v3.p1, The Finland-United States Investigation of NIDDM Genetics (FUSION) Study	MH	phs000100-T2D-001098	1				TYPE 2 DIABETES		Diabetes Mellitus Type 2		DIABETES		Y							1																																																				1									
phs000100.v3.p1, The Finland-United States Investigation of NIDDM Genetics (FUSION) Study	MH	phs000100-T2D-001099	1				TYPE 2 DIABETES		Diabetes Mellitus Type 2		DIABETES		N							1																																																				1									
phs000100.v3.p1, The Finland-United States Investigation of NIDDM Genetics (FUSION) Study	MH	phs000100-T2D-001100	1				TYPE 2 DIABETES		Diabetes Mellitus Type 2		DIABETES		N							1																																																				1									
phs000100.v3.p1, The Finland-United States Investigation of NIDDM Genetics (FUSION) Study	MH	phs000100-T2D-001101	1				TYPE 2 DIABETES		Diabetes Mellitus Type 2		DIABETES		N							1																																																				1									
phs000100.v3.p1, The Finland-United States Investigation of NIDDM Genetics (FUSION) Study	MH	phs000100-T2D-001102	1				TYPE 2 DIABETES		Diabetes Mellitus Type 2		DIABETES		N							1																																																				1									
phs000100.v3.p1, The Finland-United States Investigation of NIDDM Genetics (FUSION) Study	MH	phs000100-T2D-001103	1				TYPE 2 DIABETES		Diabetes Mellitus Type 2		DIABETES		N							1																																																				1									
phs000100.v3.p1, The Finland-United States Investigation of NIDDM Genetics (FUSION) Study	MH	phs000100-T2D-001104	1				TYPE 2 DIABETES		Diabetes Mellitus Type 2		DIABETES		Y							1																																																				1									
phs000100.v3.p1, The Finland-United States Investigation of NIDDM Genetics (FUSION) Study	MH	phs000100-T2D-001105	1				TYPE 2 DIABETES		Diabetes Mellitus Type 2		DIABETES		N							1																																																				1									
phs000100.v3.p1, The Finland-United States Investigation of NIDDM Genetics (FUSION) Study	MH	phs000100-T2D-001106	1				TYPE 2 DIABETES		Diabetes Mellitus Type 2		DIABETES		Y							1																																																				1									
phs000100.v3.p1, The Finland-United States Investigation of NIDDM Genetics (FUSION) Study	MH	phs000100-T2D-001107	1				TYPE 2 DIABETES		Diabetes Mellitus Type 2		DIABETES		Y							1																																																				1									
phs000100.v3.p1, The Finland-United States Investigation of NIDDM Genetics (FUSION) Study	MH	phs000100-T2D-001108	1				TYPE 2 DIABETES		Diabetes Mellitus Type 2		DIABETES		N							1																																																				1									
phs000100.v3.p1, The Finland-United States Investigation of NIDDM Genetics (FUSION) Study	MH	phs000100-T2D-001109	1				TYPE 2 DIABETES		Diabetes Mellitus Type 2		DIABETES		Y							1																																																				1									
phs000100.v3.p1, The Finland-United States Investigation of NIDDM Genetics (FUSION) Study	MH	phs000100-T2D-001110	1				TYPE 2 DIABETES		Diabetes Mellitus Type 2		DIABETES		Y							1																																																				1									
phs000100.v3.p1, The Finland-United States Investigation of NIDDM Genetics (FUSION) Study	MH	phs000100-T2D-001111	1				TYPE 2 DIABETES		Diabetes Mellitus Type 2		DIABETES		Y							1																																																				1									
phs000100.v3.p1, The Finland-United States Investigation of NIDDM Genetics (FUSION) Study	MH	phs000100-T2D-001112	1				TYPE 2 DIABETES		Diabetes Mellitus Type 2		DIABETES		Y							1																																																				1									
phs000100.v3.p1, The Finland-United States Investigation of NIDDM Genetics (FUSION) Study	MH	phs000100-T2D-001113	1				TYPE 2 DIABETES		Diabetes Mellitus Type 2		DIABETES		N							1																																																				1									
phs000100.v3.p1, The Finland-United States Investigation of NIDDM Genetics (FUSION) Study	MH	phs000100-T2D-001114	1				TYPE 2 DIABETES		Diabetes Mellitus Type 2		DIABETES		Y							1																																																				1									
phs000100.v3.p1, The Finland-United States Investigation of NIDDM Genetics (FUSION) Study	MH	phs000100-T2D-001115	1				TYPE 2 DIABETES		Diabetes Mellitus Type 2		DIABETES		Y							1																																																				1									
phs000100.v3.p1, The Finland-United States Investigation of NIDDM Genetics (FUSION) Study	MH	phs000100-T2D-001116	1				TYPE 2 DIABETES		Diabetes Mellitus Type 2		DIABETES		N							1																																																				1									
phs000100.v3.p1, The Finland-United States Investigation of NIDDM Genetics (FUSION) Study	MH	phs000100-T2D-001117	1				TYPE 2 DIABETES		Diabetes Mellitus Type 2		DIABETES		Y							1																																																				1									
phs000100.v3.p1, The Finland-United States Investigation of NIDDM Genetics (FUSION) Study	MH	phs000100-T2D-001118	1				TYPE 2 DIABETES		Diabetes Mellitus Type 2		DIABETES		Y							1																																																				1									
phs000100.v3.p1, The Finland-United States Investigation of NIDDM Genetics (FUSION) Study	MH	phs000100-T2D-001119	1				TYPE 2 DIABETES		Diabetes Mellitus Type 2		DIABETES		N							1																																																				1									
phs000100.v3.p1, The Finland-United States Investigation of NIDDM Genetics (FUSION) Study	MH	phs000100-T2D-001120	1				TYPE 2 DIABETES		Diabetes Mellitus Type 2		DIABETES		Y							1																																																				1									
phs000100.v3.p1, The Finland-United States Investigation of NIDDM Genetics (FUSION) Study	MH	phs000100-T2D-001121	1				TYPE 2 DIABETES		Diabetes Mellitus Type 2		DIABETES		N							1																																																				1									
phs000100.v3.p1, The Finland-United States Investigation of NIDDM Genetics (FUSION) Study	MH	phs000100-T2D-001122	1				TYPE 2 DIABETES		Diabetes Mellitus Type 2		DIABETES		N							1																																																				1									
phs000100.v3.p1, The Finland-United States Investigation of NIDDM Genetics (FUSION) Study	MH	phs000100-T2D-001123	1				TYPE 2 DIABETES		Diabetes Mellitus Type 2		DIABETES		Y							1																																																				1									
phs000100.v3.p1, The Finland-United States Investigation of NIDDM Genetics (FUSION) Study	MH	phs000100-T2D-001124	1				TYPE 2 DIABETES		Diabetes Mellitus Type 2		DIABETES		Y							1																																																				1									
phs000100.v3.p1, The Finland-United States Investigation of NIDDM Genetics (FUSION) Study	MH	phs000100-T2D-001125	1				TYPE 2 DIABETES		Diabetes Mellitus Type 2		DIABETES		Y							1																																																				1									
phs000100.v3.p1, The Finland-United States Investigation of NIDDM Genetics (FUSION) Study	MH	phs000100-T2D-001126	1				TYPE 2 DIABETES		Diabetes Mellitus Type 2		DIABETES		Y							1																																																				1									
phs000100.v3.p1, The Finland-United States Investigation of NIDDM Genetics (FUSION) Study	MH	phs000100-T2D-001127	1				TYPE 2 DIABETES		Diabetes Mellitus Type 2		DIABETES		Y							1																																																				1									
phs000100.v3.p1, The Finland-United States Investigation of NIDDM Genetics (FUSION) Study	MH	phs000100-T2D-001128	1				TYPE 2 DIABETES		Diabetes Mellitus Type 2		DIABETES		N							1																																																				1									
phs000100.v3.p1, The Finland-United States Investigation of NIDDM Genetics (FUSION) Study	MH	phs000100-T2D-001129	1				TYPE 2 DIABETES		Diabetes Mellitus Type 2		DIABETES		N							1																																																				1									
phs000100.v3.p1, The Finland-United States Investigation of NIDDM Genetics (FUSION) Study	MH	phs000100-T2D-001130	1				TYPE 2 DIABETES		Diabetes Mellitus Type 2		DIABETES		Y							1																																																				1									
phs000100.v3.p1, The Finland-United States Investigation of NIDDM Genetics (FUSION) Study	MH	phs000100-T2D-001131	1				TYPE 2 DIABETES		Diabetes Mellitus Type 2		DIABETES		N							1																																																				1									
phs000100.v3.p1, The Finland-United States Investigation of NIDDM Genetics (FUSION) Study	MH	phs000100-T2D-001132	1				TYPE 2 DIABETES		Diabetes Mellitus Type 2		DIABETES		Y							1																																																				1									
phs000100.v3.p1, The Finland-United States Investigation of NIDDM Genetics (FUSION) Study	MH	phs000100-T2D-001133	1				TYPE 2 DIABETES		Diabetes Mellitus Type 2		DIABETES		Y							1																																																				1									
phs000100.v3.p1, The Finland-United States Investigation of NIDDM Genetics (FUSION) Study	MH	phs000100-T2D-001134	1				TYPE 2 DIABETES		Diabetes Mellitus Type 2		DIABETES		N							1																																																				1									
phs000100.v3.p1, The Finland-United States Investigation of NIDDM Genetics (FUSION) Study	MH	phs000100-T2D-001135	1				TYPE 2 DIABETES		Diabetes Mellitus Type 2		DIABETES		N							1																																																				1									
phs000100.v3.p1, The Finland-United States Investigation of NIDDM Genetics (FUSION) Study	MH	phs000100-T2D-001136	1				TYPE 2 DIABETES		Diabetes Mellitus Type 2		DIABETES		N							1																																																				1									
phs000100.v3.p1, The Finland-United States Investigation of NIDDM Genetics (FUSION) Study	MH	phs000100-T2D-001137	1				TYPE 2 DIABETES		Diabetes Mellitus Type 2		DIABETES		N							1																																																				1									
phs000100.v3.p1, The Finland-United States Investigation of NIDDM Genetics (FUSION) Study	MH	phs000100-T2D-001138	1				TYPE 2 DIABETES		Diabetes Mellitus Type 2		DIABETES		N							1																																																				1									
phs000100.v3.p1, The Finland-United States Investigation of NIDDM Genetics (FUSION) Study	MH	phs000100-T2D-001139	1				TYPE 2 DIABETES		Diabetes Mellitus Type 2		DIABETES		N							1																																																				1									
phs000100.v3.p1, The Finland-United States Investigation of NIDDM Genetics (FUSION) Study	MH	phs000100-T2D-001140	1				TYPE 2 DIABETES		Diabetes Mellitus Type 2		DIABETES		Y							1																																																				1									
phs000100.v3.p1, The Finland-United States Investigation of NIDDM Genetics (FUSION) Study	MH	phs000100-T2D-001141	1				TYPE 2 DIABETES		Diabetes Mellitus Type 2		DIABETES		Y							1																																																				1									
phs000100.v3.p1, The Finland-United States Investigation of NIDDM Genetics (FUSION) Study	MH	phs000100-T2D-001142	1				TYPE 2 DIABETES		Diabetes Mellitus Type 2		DIABETES		Y							1																																																				1									
phs000100.v3.p1, The Finland-United States Investigation of NIDDM Genetics (FUSION) Study	MH	phs000100-T2D-001143	1				TYPE 2 DIABETES		Diabetes Mellitus Type 2		DIABETES		N							1																																																				1									
phs000100.v3.p1, The Finland-United States Investigation of NIDDM Genetics (FUSION) Study	MH	phs000100-T2D-001144	1				TYPE 2 DIABETES		Diabetes Mellitus Type 2		DIABETES		N							1																																																				1									
phs000100.v3.p1, The Finland-United States Investigation of NIDDM Genetics (FUSION) Study	MH	phs000100-T2D-001145	1				TYPE 2 DIABETES		Diabetes Mellitus Type 2		DIABETES		Y							1																																																				1									
phs000100.v3.p1, The Finland-United States Investigation of NIDDM Genetics (FUSION) Study	MH	phs000100-T2D-001146	1				TYPE 2 DIABETES		Diabetes Mellitus Type 2		DIABETES		Y							1																																																				1									
phs000100.v3.p1, The Finland-United States Investigation of NIDDM Genetics (FUSION) Study	MH	phs000100-T2D-001147	1				TYPE 2 DIABETES		Diabetes Mellitus Type 2		DIABETES		N							1																																																				1									
phs000100.v3.p1, The Finland-United States Investigation of NIDDM Genetics (FUSION) Study	MH	phs000100-T2D-001148	1				TYPE 2 DIABETES		Diabetes Mellitus Type 2		DIABETES		N							1																																																				1									
phs000100.v3.p1, The Finland-United States Investigation of NIDDM Genetics (FUSION) Study	MH	phs000100-T2D-001149	1				TYPE 2 DIABETES		Diabetes Mellitus Type 2		DIABETES		N							1																																																				1									
phs000100.v3.p1, The Finland-United States Investigation of NIDDM Genetics (FUSION) Study	MH	phs000100-T2D-001150	1				TYPE 2 DIABETES		Diabetes Mellitus Type 2		DIABETES		N							1																																																				1									
phs000100.v3.p1, The Finland-United States Investigation of NIDDM Genetics (FUSION) Study	MH	phs000100-T2D-001151	1				TYPE 2 DIABETES		Diabetes Mellitus Type 2		DIABETES		Y							1																																																				1									
phs000100.v3.p1, The Finland-United States Investigation of NIDDM Genetics (FUSION) Study	MH	phs000100-T2D-001152	1				TYPE 2 DIABETES		Diabetes Mellitus Type 2		DIABETES		N							1																																																				1									
phs000100.v3.p1, The Finland-United States Investigation of NIDDM Genetics (FUSION) Study	MH	phs000100-T2D-001153	1				TYPE 2 DIABETES		Diabetes Mellitus Type 2		DIABETES		Y							1																																																				1									
phs000100.v3.p1, The Finland-United States Investigation of NIDDM Genetics (FUSION) Study	MH	phs000100-T2D-001154	1				TYPE 2 DIABETES		Diabetes Mellitus Type 2		DIABETES		N							1																																																				1									
phs000100.v3.p1, The Finland-United States Investigation of NIDDM Genetics (FUSION) Study	MH	phs000100-T2D-001155	1				TYPE 2 DIABETES		Diabetes Mellitus Type 2		DIABETES		N							1																																																				1									
phs000100.v3.p1, The Finland-United States Investigation of NIDDM Genetics (FUSION) Study	MH	phs000100-T2D-001156	1				TYPE 2 DIABETES		Diabetes Mellitus Type 2		DIABETES		Y							1																																																				1									
phs000100.v3.p1, The Finland-United States Investigation of NIDDM Genetics (FUSION) Study	MH	phs000100-T2D-001157	1				TYPE 2 DIABETES		Diabetes Mellitus Type 2		DIABETES		Y							1																																																				1									
phs000100.v3.p1, The Finland-United States Investigation of NIDDM Genetics (FUSION) Study	MH	phs000100-T2D-001158	1				TYPE 2 DIABETES		Diabetes Mellitus Type 2		DIABETES		Y							1																																																				1									
phs000100.v3.p1, The Finland-United States Investigation of NIDDM Genetics (FUSION) Study	MH	phs000100-T2D-001159	1				TYPE 2 DIABETES		Diabetes Mellitus Type 2		DIABETES		N							1																																																				1									
phs000100.v3.p1, The Finland-United States Investigation of NIDDM Genetics (FUSION) Study	MH	phs000100-T2D-001160	1				TYPE 2 DIABETES		Diabetes Mellitus Type 2		DIABETES		N							1																																																				1									
phs000100.v3.p1, The Finland-United States Investigation of NIDDM Genetics (FUSION) Study	MH	phs000100-T2D-001161	1				TYPE 2 DIABETES		Diabetes Mellitus Type 2		DIABETES		N							1																																																				1									
phs000100.v3.p1, The Finland-United States Investigation of NIDDM Genetics (FUSION) Study	MH	phs000100-T2D-001162	1				TYPE 2 DIABETES		Diabetes Mellitus Type 2		DIABETES		N							1																																																				1									
phs000100.v3.p1, The Finland-United States Investigation of NIDDM Genetics (FUSION) Study	MH	phs000100-T2D-001163	1				TYPE 2 DIABETES		Diabetes Mellitus Type 2		DIABETES		N							1																																																				1									
phs000100.v3.p1, The Finland-United States Investigation of NIDDM Genetics (FUSION) Study	MH	phs000100-T2D-001164	1				TYPE 2 DIABETES		Diabetes Mellitus Type 2		DIABETES		Y							1																																																				1									
phs000100.v3.p1, The Finland-United States Investigation of NIDDM Genetics (FUSION) Study	MH	phs000100-T2D-001165	1				TYPE 2 DIABETES		Diabetes Mellitus Type 2		DIABETES		Y							1																																																				1									
phs000100.v3.p1, The Finland-United States Investigation of NIDDM Genetics (FUSION) Study	MH	phs000100-T2D-001166	1				TYPE 2 DIABETES		Diabetes Mellitus Type 2		DIABETES		N							1																																																				1									
phs000100.v3.p1, The Finland-United States Investigation of NIDDM Genetics (FUSION) Study	MH	phs000100-T2D-001167	1				TYPE 2 DIABETES		Diabetes Mellitus Type 2		DIABETES		Y							1																																																				1									
phs000100.v3.p1, The Finland-United States Investigation of NIDDM Genetics (FUSION) Study	MH	phs000100-T2D-001168	1				TYPE 2 DIABETES		Diabetes Mellitus Type 2		DIABETES		Y							1																																																				1									
phs000100.v3.p1, The Finland-United States Investigation of NIDDM Genetics (FUSION) Study	MH	phs000100-T2D-001169	1				TYPE 2 DIABETES		Diabetes Mellitus Type 2		DIABETES		N							1																																																				1									
phs000100.v3.p1, The Finland-United States Investigation of NIDDM Genetics (FUSION) Study	MH	phs000100-T2D-001170	1				TYPE 2 DIABETES		Diabetes Mellitus Type 2		DIABETES		Y							1																																																				1									
phs000100.v3.p1, The Finland-United States Investigation of NIDDM Genetics (FUSION) Study	MH	phs000100-T2D-001171	1				TYPE 2 DIABETES		Diabetes Mellitus Type 2		DIABETES		Y							1																																																				1									
phs000100.v3.p1, The Finland-United States Investigation of NIDDM Genetics (FUSION) Study	MH	phs000100-T2D-001172	1				TYPE 2 DIABETES		Diabetes Mellitus Type 2		DIABETES		Y							1																																																				1									
phs000100.v3.p1, The Finland-United States Investigation of NIDDM Genetics (FUSION) Study	MH	phs000100-T2D-001173	1				TYPE 2 DIABETES		Diabetes Mellitus Type 2		DIABETES		Y							1																																																				1									
phs000100.v3.p1, The Finland-United States Investigation of NIDDM Genetics (FUSION) Study	MH	phs000100-T2D-001174	1				TYPE 2 DIABETES		Diabetes Mellitus Type 2		DIABETES		Y							1																																																				1									
phs000100.v3.p1, The Finland-United States Investigation of NIDDM Genetics (FUSION) Study	MH	phs000100-T2D-001175	1				TYPE 2 DIABETES		Diabetes Mellitus Type 2		DIABETES		Y							1																																																				1									
phs000100.v3.p1, The Finland-United States Investigation of NIDDM Genetics (FUSION) Study	MH	phs000100-T2D-001176	1				TYPE 2 DIABETES		Diabetes Mellitus Type 2		DIABETES		Y							1																																																				1									
phs000100.v3.p1, The Finland-United States Investigation of NIDDM Genetics (FUSION) Study	MH	phs000100-T2D-001177	1				TYPE 2 DIABETES		Diabetes Mellitus Type 2		DIABETES		N							1																																																				1									
phs000100.v3.p1, The Finland-United States Investigation of NIDDM Genetics (FUSION) Study	MH	phs000100-T2D-001178	1				TYPE 2 DIABETES		Diabetes Mellitus Type 2		DIABETES		N							1																																																				1									
phs000100.v3.p1, The Finland-United States Investigation of NIDDM Genetics (FUSION) Study	MH	phs000100-T2D-001179	1				TYPE 2 DIABETES		Diabetes Mellitus Type 2		DIABETES		N							1																																																				1									
phs000100.v3.p1, The Finland-United States Investigation of NIDDM Genetics (FUSION) Study	MH	phs000100-T2D-001180	1				TYPE 2 DIABETES		Diabetes Mellitus Type 2		DIABETES		N							1																																																				1									
phs000100.v3.p1, The Finland-United States Investigation of NIDDM Genetics (FUSION) Study	MH	phs000100-T2D-001181	1				TYPE 2 DIABETES		Diabetes Mellitus Type 2		DIABETES		Y							1																																																				1									
phs000100.v3.p1, The Finland-United States Investigation of NIDDM Genetics (FUSION) Study	MH	phs000100-T2D-001182	1				TYPE 2 DIABETES		Diabetes Mellitus Type 2		DIABETES		Y							1																																																				1									
phs000100.v3.p1, The Finland-United States Investigation of NIDDM Genetics (FUSION) Study	MH	phs000100-T2D-001183	1				TYPE 2 DIABETES		Diabetes Mellitus Type 2		DIABETES		N							1																																																				1									
phs000100.v3.p1, The Finland-United States Investigation of NIDDM Genetics (FUSION) Study	MH	phs000100-T2D-001184	1				TYPE 2 DIABETES		Diabetes Mellitus Type 2		DIABETES		N							1																																																				1									
phs000100.v3.p1, The Finland-United States Investigation of NIDDM Genetics (FUSION) Study	MH	phs000100-T2D-001185	1				TYPE 2 DIABETES		Diabetes Mellitus Type 2		DIABETES		Y							1																																																				1									
phs000100.v3.p1, The Finland-United States Investigation of NIDDM Genetics (FUSION) Study	MH	phs000100-T2D-001186	1				TYPE 2 DIABETES		Diabetes Mellitus Type 2		DIABETES		Y							1																																																				1									
phs000100.v3.p1, The Finland-United States Investigation of NIDDM Genetics (FUSION) Study	MH	phs000100-T2D-001187	1				TYPE 2 DIABETES		Diabetes Mellitus Type 2		DIABETES		Y							1																																																				1									
phs000100.v3.p1, The Finland-United States Investigation of NIDDM Genetics (FUSION) Study	MH	phs000100-T2D-001188	1				TYPE 2 DIABETES		Diabetes Mellitus Type 2		DIABETES		N							1																																																				1									
phs000100.v3.p1, The Finland-United States Investigation of NIDDM Genetics (FUSION) Study	MH	phs000100-T2D-001189	1				TYPE 2 DIABETES		Diabetes Mellitus Type 2		DIABETES		Y							1																																																				1									
phs000100.v3.p1, The Finland-United States Investigation of NIDDM Genetics (FUSION) Study	MH	phs000100-T2D-001190	1				TYPE 2 DIABETES		Diabetes Mellitus Type 2		DIABETES		Y							1																																																				1									
phs000100.v3.p1, The Finland-United States Investigation of NIDDM Genetics (FUSION) Study	MH	phs000100-T2D-001191	1				TYPE 2 DIABETES		Diabetes Mellitus Type 2		DIABETES		Y							1																																																				1									
phs000100.v3.p1, The Finland-United States Investigation of NIDDM Genetics (FUSION) Study	MH	phs000100-T2D-001192	1				TYPE 2 DIABETES		Diabetes Mellitus Type 2		DIABETES		N							1																																																				1									
phs000100.v3.p1, The Finland-United States Investigation of NIDDM Genetics (FUSION) Study	MH	phs000100-T2D-001193	1				TYPE 2 DIABETES		Diabetes Mellitus Type 2		DIABETES		Y							1																																																				1									
phs000100.v3.p1, The Finland-United States Investigation of NIDDM Genetics (FUSION) Study	MH	phs000100-T2D-001194	1				TYPE 2 DIABETES		Diabetes Mellitus Type 2		DIABETES		Y							1																																																				1									
phs000100.v3.p1, The Finland-United States Investigation of NIDDM Genetics (FUSION) Study	MH	phs000100-T2D-001195	1				TYPE 2 DIABETES		Diabetes Mellitus Type 2		DIABETES		Y							1																																																				1									
phs000100.v3.p1, The Finland-United States Investigation of NIDDM Genetics (FUSION) Study	MH	phs000100-T2D-001196	1				TYPE 2 DIABETES		Diabetes Mellitus Type 2		DIABETES		Y							1																																																				1									
phs000100.v3.p1, The Finland-United States Investigation of NIDDM Genetics (FUSION) Study	MH	phs000100-T2D-001197	1				TYPE 2 DIABETES		Diabetes Mellitus Type 2		DIABETES		N							1																																																				1									
phs000100.v3.p1, The Finland-United States Investigation of NIDDM Genetics (FUSION) Study	MH	phs000100-T2D-001198	1				TYPE 2 DIABETES		Diabetes Mellitus Type 2		DIABETES		Y							1																																																				1									
phs000100.v3.p1, The Finland-United States Investigation of NIDDM Genetics (FUSION) Study	MH	phs000100-T2D-001199	1				TYPE 2 DIABETES		Diabetes Mellitus Type 2		DIABETES		Y							1																																																				1									
phs000100.v3.p1, The Finland-United States Investigation of NIDDM Genetics (FUSION) Study	MH	phs000100-T2D-001200	1				TYPE 2 DIABETES		Diabetes Mellitus Type 2		DIABETES		N							1																																																				1									
phs000100.v3.p1, The Finland-United States Investigation of NIDDM Genetics (FUSION) Study	MH	phs000100-T2D-001201	1				TYPE 2 DIABETES		Diabetes Mellitus Type 2		DIABETES		N							1																																																				1									
phs000100.v3.p1, The Finland-United States Investigation of NIDDM Genetics (FUSION) Study	MH	phs000100-T2D-001202	1				TYPE 2 DIABETES		Diabetes Mellitus Type 2		DIABETES		N							1																																																				1									
phs000100.v3.p1, The Finland-United States Investigation of NIDDM Genetics (FUSION) Study	MH	phs000100-T2D-001203	1				TYPE 2 DIABETES		Diabetes Mellitus Type 2		DIABETES		N							1																																																				1									
phs000100.v3.p1, The Finland-United States Investigation of NIDDM Genetics (FUSION) Study	MH	phs000100-T2D-001204	1				TYPE 2 DIABETES		Diabetes Mellitus Type 2		DIABETES		Y							1																																																				1									
phs000100.v3.p1, The Finland-United States Investigation of NIDDM Genetics (FUSION) Study	MH	phs000100-T2D-001205	1				TYPE 2 DIABETES		Diabetes Mellitus Type 2		DIABETES		N							1																																																				1									
phs000100.v3.p1, The Finland-United States Investigation of NIDDM Genetics (FUSION) Study	MH	phs000100-T2D-001206	1				TYPE 2 DIABETES		Diabetes Mellitus Type 2		DIABETES		Y							1																																																				1									
phs000100.v3.p1, The Finland-United States Investigation of NIDDM Genetics (FUSION) Study	MH	phs000100-T2D-001207	1				TYPE 2 DIABETES		Diabetes Mellitus Type 2		DIABETES		N							1																																																				1									
phs000100.v3.p1, The Finland-United States Investigation of NIDDM Genetics (FUSION) Study	MH	phs000100-T2D-001208	1				TYPE 2 DIABETES		Diabetes Mellitus Type 2		DIABETES		N							1																																																				1									
phs000100.v3.p1, The Finland-United States Investigation of NIDDM Genetics (FUSION) Study	MH	phs000100-T2D-001209	1				TYPE 2 DIABETES		Diabetes Mellitus Type 2		DIABETES		N							1																																																				1									
phs000100.v3.p1, The Finland-United States Investigation of NIDDM Genetics (FUSION) Study	MH	phs000100-T2D-001210	1				TYPE 2 DIABETES		Diabetes Mellitus Type 2		DIABETES		N							1																																																				1									
phs000100.v3.p1, The Finland-United States Investigation of NIDDM Genetics (FUSION) Study	MH	phs000100-T2D-001211	1				TYPE 2 DIABETES		Diabetes Mellitus Type 2		DIABETES		N							1																																																				1									
phs000100.v3.p1, The Finland-United States Investigation of NIDDM Genetics (FUSION) Study	MH	phs000100-T2D-001212	1				TYPE 2 DIABETES		Diabetes Mellitus Type 2		DIABETES		Y							1																																																				1									
phs000100.v3.p1, The Finland-United States Investigation of NIDDM Genetics (FUSION) Study	MH	phs000100-T2D-001213	1				TYPE 2 DIABETES		Diabetes Mellitus Type 2		DIABETES		N							1																																																				1									
phs000100.v3.p1, The Finland-United States Investigation of NIDDM Genetics (FUSION) Study	MH	phs000100-T2D-001214	1				TYPE 2 DIABETES		Diabetes Mellitus Type 2		DIABETES		Y							1																																																				1									
phs000100.v3.p1, The Finland-United States Investigation of NIDDM Genetics (FUSION) Study	MH	phs000100-T2D-001215	1				TYPE 2 DIABETES		Diabetes Mellitus Type 2		DIABETES		Y							1																																																				1									
phs000100.v3.p1, The Finland-United States Investigation of NIDDM Genetics (FUSION) Study	MH	phs000100-T2D-001216	1				TYPE 2 DIABETES		Diabetes Mellitus Type 2		DIABETES		Y							1																																																				1									
phs000100.v3.p1, The Finland-United States Investigation of NIDDM Genetics (FUSION) Study	MH	phs000100-T2D-001217	1				TYPE 2 DIABETES		Diabetes Mellitus Type 2		DIABETES		N							1																																																				1									
phs000100.v3.p1, The Finland-United States Investigation of NIDDM Genetics (FUSION) Study	MH	phs000100-T2D-001218	1				TYPE 2 DIABETES		Diabetes Mellitus Type 2		DIABETES		Y							1																																																				1									
phs000100.v3.p1, The Finland-United States Investigation of NIDDM Genetics (FUSION) Study	MH	phs000100-T2D-001219	1				TYPE 2 DIABETES		Diabetes Mellitus Type 2		DIABETES		Y							1																																																				1									
phs000100.v3.p1, The Finland-United States Investigation of NIDDM Genetics (FUSION) Study	MH	phs000100-T2D-001220	1				TYPE 2 DIABETES		Diabetes Mellitus Type 2		DIABETES		N							1																																																				1									
phs000100.v3.p1, The Finland-United States Investigation of NIDDM Genetics (FUSION) Study	MH	phs000100-T2D-001221	1				TYPE 2 DIABETES		Diabetes Mellitus Type 2		DIABETES		N							1																																																				1									
phs000100.v3.p1, The Finland-United States Investigation of NIDDM Genetics (FUSION) Study	MH	phs000100-T2D-001222	1				TYPE 2 DIABETES		Diabetes Mellitus Type 2		DIABETES		N							1																																																				1									
phs000100.v3.p1, The Finland-United States Investigation of NIDDM Genetics (FUSION) Study	MH	phs000100-T2D-001223	1				TYPE 2 DIABETES		Diabetes Mellitus Type 2		DIABETES		N							1																																																				1									
phs000100.v3.p1, The Finland-United States Investigation of NIDDM Genetics (FUSION) Study	MH	phs000100-T2D-001224	1				TYPE 2 DIABETES		Diabetes Mellitus Type 2		DIABETES		Y							1																																																				1									
phs000100.v3.p1, The Finland-United States Investigation of NIDDM Genetics (FUSION) Study	MH	phs000100-T2D-001225	1				TYPE 2 DIABETES		Diabetes Mellitus Type 2		DIABETES		N							1																																																				1									
phs000100.v3.p1, The Finland-United States Investigation of NIDDM Genetics (FUSION) Study	MH	phs000100-T2D-001226	1				TYPE 2 DIABETES		Diabetes Mellitus Type 2		DIABETES		Y							1																																																				1									
phs000100.v3.p1, The Finland-United States Investigation of NIDDM Genetics (FUSION) Study	MH	phs000100-T2D-001227	1				TYPE 2 DIABETES		Diabetes Mellitus Type 2		DIABETES		N							1																																																				1									
phs000100.v3.p1, The Finland-United States Investigation of NIDDM Genetics (FUSION) Study	MH	phs000100-T2D-001228	1				TYPE 2 DIABETES		Diabetes Mellitus Type 2		DIABETES		Y							1																																																				1									
phs000100.v3.p1, The Finland-United States Investigation of NIDDM Genetics (FUSION) Study	MH	phs000100-T2D-001229	1				TYPE 2 DIABETES		Diabetes Mellitus Type 2		DIABETES		N							1																																																				1									
phs000100.v3.p1, The Finland-United States Investigation of NIDDM Genetics (FUSION) Study	MH	phs000100-T2D-001230	1				TYPE 2 DIABETES		Diabetes Mellitus Type 2		DIABETES		Y							1																																																				1									
phs000100.v3.p1, The Finland-United States Investigation of NIDDM Genetics (FUSION) Study	MH	phs000100-T2D-001231	1				TYPE 2 DIABETES		Diabetes Mellitus Type 2		DIABETES		N							1																																																				1									
phs000100.v3.p1, The Finland-United States Investigation of NIDDM Genetics (FUSION) Study	MH	phs000100-T2D-001232	1				TYPE 2 DIABETES		Diabetes Mellitus Type 2		DIABETES		Y							1																																																				1									
phs000100.v3.p1, The Finland-United States Investigation of NIDDM Genetics (FUSION) Study	MH	phs000100-T2D-001233	1				TYPE 2 DIABETES		Diabetes Mellitus Type 2		DIABETES		N							1																																																				1									
phs000100.v3.p1, The Finland-United States Investigation of NIDDM Genetics (FUSION) Study	MH	phs000100-T2D-001234	1				TYPE 2 DIABETES		Diabetes Mellitus Type 2		DIABETES		N							1																																																				1									
phs000100.v3.p1, The Finland-United States Investigation of NIDDM Genetics (FUSION) Study	MH	phs000100-T2D-001235	1				TYPE 2 DIABETES		Diabetes Mellitus Type 2		DIABETES		N							1																																																				1									
phs000100.v3.p1, The Finland-United States Investigation of NIDDM Genetics (FUSION) Study	MH	phs000100-T2D-001236	1				TYPE 2 DIABETES		Diabetes Mellitus Type 2		DIABETES		Y							1																																																				1									
phs000100.v3.p1, The Finland-United States Investigation of NIDDM Genetics (FUSION) Study	MH	phs000100-T2D-001237	1				TYPE 2 DIABETES		Diabetes Mellitus Type 2		DIABETES		Y							1																																																				1									
phs000100.v3.p1, The Finland-United States Investigation of NIDDM Genetics (FUSION) Study	MH	phs000100-T2D-001238	1				TYPE 2 DIABETES		Diabetes Mellitus Type 2		DIABETES		Y							1																																																				1									
phs000100.v3.p1, The Finland-United States Investigation of NIDDM Genetics (FUSION) Study	MH	phs000100-T2D-001239	1				TYPE 2 DIABETES		Diabetes Mellitus Type 2		DIABETES		N							1																																																				1									
phs000100.v3.p1, The Finland-United States Investigation of NIDDM Genetics (FUSION) Study	MH	phs000100-T2D-001240	1				TYPE 2 DIABETES		Diabetes Mellitus Type 2		DIABETES		Y							1																																																				1									
phs000100.v3.p1, The Finland-United States Investigation of NIDDM Genetics (FUSION) Study	MH	phs000100-T2D-001241	1				TYPE 2 DIABETES		Diabetes Mellitus Type 2		DIABETES		Y							1																																																				1									
phs000100.v3.p1, The Finland-United States Investigation of NIDDM Genetics (FUSION) Study	MH	phs000100-T2D-001242	1				TYPE 2 DIABETES		Diabetes Mellitus Type 2		DIABETES		N							1																																																				1									
phs000100.v3.p1, The Finland-United States Investigation of NIDDM Genetics (FUSION) Study	MH	phs000100-T2D-001243	1				TYPE 2 DIABETES		Diabetes Mellitus Type 2		DIABETES		N							1																																																				1									
phs000100.v3.p1, The Finland-United States Investigation of NIDDM Genetics (FUSION) Study	MH	phs000100-T2D-001244	1				TYPE 2 DIABETES		Diabetes Mellitus Type 2		DIABETES		N							1																																																				1									
phs000100.v3.p1, The Finland-United States Investigation of NIDDM Genetics (FUSION) Study	MH	phs000100-T2D-001245	1				TYPE 2 DIABETES		Diabetes Mellitus Type 2		DIABETES		N							1																																																				1									
phs000100.v3.p1, The Finland-United States Investigation of NIDDM Genetics (FUSION) Study	MH	phs000100-T2D-001246	1				TYPE 2 DIABETES		Diabetes Mellitus Type 2		DIABETES		N							1																																																				1									
phs000100.v3.p1, The Finland-United States Investigation of NIDDM Genetics (FUSION) Study	MH	phs000100-T2D-001247	1				TYPE 2 DIABETES		Diabetes Mellitus Type 2		DIABETES		N							1																																																				1									
phs000100.v3.p1, The Finland-United States Investigation of NIDDM Genetics (FUSION) Study	MH	phs000100-T2D-001248	1				TYPE 2 DIABETES		Diabetes Mellitus Type 2		DIABETES		Y							1																																																				1									
phs000100.v3.p1, The Finland-United States Investigation of NIDDM Genetics (FUSION) Study	MH	phs000100-T2D-001249	1				TYPE 2 DIABETES		Diabetes Mellitus Type 2		DIABETES		Y							1																																																				1									
phs000100.v3.p1, The Finland-United States Investigation of NIDDM Genetics (FUSION) Study	MH	phs000100-T2D-001250	1				TYPE 2 DIABETES		Diabetes Mellitus Type 2		DIABETES		N							1																																																				1									
phs000100.v3.p1, The Finland-United States Investigation of NIDDM Genetics (FUSION) Study	MH	phs000100-T2D-001251	1				TYPE 2 DIABETES		Diabetes Mellitus Type 2		DIABETES		N							1																																																				1									
phs000100.v3.p1, The Finland-United States Investigation of NIDDM Genetics (FUSION) Study	MH	phs000100-T2D-001252	1				TYPE 2 DIABETES		Diabetes Mellitus Type 2		DIABETES		Y							1																																																				1									
phs000100.v3.p1, The Finland-United States Investigation of NIDDM Genetics (FUSION) Study	MH	phs000100-T2D-001253	1				TYPE 2 DIABETES		Diabetes Mellitus Type 2		DIABETES		Y							1																																																				1									
phs000100.v3.p1, The Finland-United States Investigation of NIDDM Genetics (FUSION) Study	MH	phs000100-T2D-001254	1				TYPE 2 DIABETES		Diabetes Mellitus Type 2		DIABETES		Y							1																																																				1									
phs000100.v3.p1, The Finland-United States Investigation of NIDDM Genetics (FUSION) Study	MH	phs000100-T2D-001255	1				TYPE 2 DIABETES		Diabetes Mellitus Type 2		DIABETES		N							1																																																				1									
phs000100.v3.p1, The Finland-United States Investigation of NIDDM Genetics (FUSION) Study	MH	phs000100-T2D-001256	1				TYPE 2 DIABETES		Diabetes Mellitus Type 2		DIABETES		N							1																																																				1									
phs000100.v3.p1, The Finland-United States Investigation of NIDDM Genetics (FUSION) Study	MH	phs000100-T2D-001257	1				TYPE 2 DIABETES		Diabetes Mellitus Type 2		DIABETES		N							1																																																				1									
phs000100.v3.p1, The Finland-United States Investigation of NIDDM Genetics (FUSION) Study	MH	phs000100-T2D-001258	1				TYPE 2 DIABETES		Diabetes Mellitus Type 2		DIABETES		Y							1																																																				1									
phs000100.v3.p1, The Finland-United States Investigation of NIDDM Genetics (FUSION) Study	MH	phs000100-T2D-001259	1				TYPE 2 DIABETES		Diabetes Mellitus Type 2		DIABETES		Y							1																																																				1									
phs000100.v3.p1, The Finland-United States Investigation of NIDDM Genetics (FUSION) Study	MH	phs000100-T2D-001260	1				TYPE 2 DIABETES		Diabetes Mellitus Type 2		DIABETES		Y							1																																																				1									
phs000100.v3.p1, The Finland-United States Investigation of NIDDM Genetics (FUSION) Study	MH	phs000100-T2D-001261	1				TYPE 2 DIABETES		Diabetes Mellitus Type 2		DIABETES		Y							1																																																				1									
phs000100.v3.p1, The Finland-United States Investigation of NIDDM Genetics (FUSION) Study	MH	phs000100-T2D-001262	1				TYPE 2 DIABETES		Diabetes Mellitus Type 2		DIABETES		N							1																																																				1									
phs000100.v3.p1, The Finland-United States Investigation of NIDDM Genetics (FUSION) Study	MH	phs000100-T2D-001263	1				TYPE 2 DIABETES		Diabetes Mellitus Type 2		DIABETES		Y							1																																																				1									
phs000100.v3.p1, The Finland-United States Investigation of NIDDM Genetics (FUSION) Study	MH	phs000100-T2D-001264	1				TYPE 2 DIABETES		Diabetes Mellitus Type 2		DIABETES		N							1																																																				1									
phs000100.v3.p1, The Finland-United States Investigation of NIDDM Genetics (FUSION) Study	MH	phs000100-T2D-001265	1				TYPE 2 DIABETES		Diabetes Mellitus Type 2		DIABETES		N							1																																																				1									
phs000100.v3.p1, The Finland-United States Investigation of NIDDM Genetics (FUSION) Study	MH	phs000100-T2D-001266	1				TYPE 2 DIABETES		Diabetes Mellitus Type 2		DIABETES		Y							1																																																				1									
phs000100.v3.p1, The Finland-United States Investigation of NIDDM Genetics (FUSION) Study	MH	phs000100-T2D-001267	1				TYPE 2 DIABETES		Diabetes Mellitus Type 2		DIABETES		N							1																																																				1									
phs000100.v3.p1, The Finland-United States Investigation of NIDDM Genetics (FUSION) Study	MH	phs000100-T2D-001268	1				TYPE 2 DIABETES		Diabetes Mellitus Type 2		DIABETES		Y							1																																																				1									
phs000100.v3.p1, The Finland-United States Investigation of NIDDM Genetics (FUSION) Study	MH	phs000100-T2D-001269	1				TYPE 2 DIABETES		Diabetes Mellitus Type 2		DIABETES		N							1																																																				1									
phs000100.v3.p1, The Finland-United States Investigation of NIDDM Genetics (FUSION) Study	MH	phs000100-T2D-001270	1				TYPE 2 DIABETES		Diabetes Mellitus Type 2		DIABETES		Y							1																																																				1									
phs000100.v3.p1, The Finland-United States Investigation of NIDDM Genetics (FUSION) Study	MH	phs000100-T2D-001271	1				TYPE 2 DIABETES		Diabetes Mellitus Type 2		DIABETES		Y							1																																																				1									
phs000100.v3.p1, The Finland-United States Investigation of NIDDM Genetics (FUSION) Study	MH	phs000100-T2D-001272	1				TYPE 2 DIABETES		Diabetes Mellitus Type 2		DIABETES		Y							1																																																				1									
phs000100.v3.p1, The Finland-United States Investigation of NIDDM Genetics (FUSION) Study	MH	phs000100-T2D-001273	1				TYPE 2 DIABETES		Diabetes Mellitus Type 2		DIABETES		N							1																																																				1									
phs000100.v3.p1, The Finland-United States Investigation of NIDDM Genetics (FUSION) Study	MH	phs000100-T2D-001274	1				TYPE 2 DIABETES		Diabetes Mellitus Type 2		DIABETES		N							1																																																				1									
phs000100.v3.p1, The Finland-United States Investigation of NIDDM Genetics (FUSION) Study	MH	phs000100-T2D-001275	1				TYPE 2 DIABETES		Diabetes Mellitus Type 2		DIABETES		N							1																																																				1									
phs000100.v3.p1, The Finland-United States Investigation of NIDDM Genetics (FUSION) Study	MH	phs000100-T2D-001276	1				TYPE 2 DIABETES		Diabetes Mellitus Type 2		DIABETES		N							1																																																				1									
phs000100.v3.p1, The Finland-United States Investigation of NIDDM Genetics (FUSION) Study	MH	phs000100-T2D-001277	1				TYPE 2 DIABETES		Diabetes Mellitus Type 2		DIABETES		Y							1																																																				1									
phs000100.v3.p1, The Finland-United States Investigation of NIDDM Genetics (FUSION) Study	MH	phs000100-T2D-001278	1				TYPE 2 DIABETES		Diabetes Mellitus Type 2		DIABETES		N							1																																																				1									
phs000100.v3.p1, The Finland-United States Investigation of NIDDM Genetics (FUSION) Study	MH	phs000100-T2D-001279	1				TYPE 2 DIABETES		Diabetes Mellitus Type 2		DIABETES		Y							1																																																				1									
phs000100.v3.p1, The Finland-United States Investigation of NIDDM Genetics (FUSION) Study	MH	phs000100-T2D-001280	1				TYPE 2 DIABETES		Diabetes Mellitus Type 2		DIABETES		N							1																																																				1									
phs000100.v3.p1, The Finland-United States Investigation of NIDDM Genetics (FUSION) Study	MH	phs000100-T2D-001281	1				TYPE 2 DIABETES		Diabetes Mellitus Type 2		DIABETES		N							1																																																				1									
phs000100.v3.p1, The Finland-United States Investigation of NIDDM Genetics (FUSION) Study	MH	phs000100-T2D-001282	1				TYPE 2 DIABETES		Diabetes Mellitus Type 2		DIABETES		Y							1																																																				1									
phs000100.v3.p1, The Finland-United States Investigation of NIDDM Genetics (FUSION) Study	MH	phs000100-T2D-001283	1				TYPE 2 DIABETES		Diabetes Mellitus Type 2		DIABETES		N							1																																																				1									
phs000100.v3.p1, The Finland-United States Investigation of NIDDM Genetics (FUSION) Study	MH	phs000100-T2D-001284	1				TYPE 2 DIABETES		Diabetes Mellitus Type 2		DIABETES		Y							1																																																				1									
phs000100.v3.p1, The Finland-United States Investigation of NIDDM Genetics (FUSION) Study	MH	phs000100-T2D-001285	1				TYPE 2 DIABETES		Diabetes Mellitus Type 2		DIABETES		Y							1																																																				1									
phs000100.v3.p1, The Finland-United States Investigation of NIDDM Genetics (FUSION) Study	MH	phs000100-T2D-001286	1				TYPE 2 DIABETES		Diabetes Mellitus Type 2		DIABETES		Y							1																																																				1									
phs000100.v3.p1, The Finland-United States Investigation of NIDDM Genetics (FUSION) Study	MH	phs000100-T2D-001287	1				TYPE 2 DIABETES		Diabetes Mellitus Type 2		DIABETES		Y							1																																																				1									
phs000100.v3.p1, The Finland-United States Investigation of NIDDM Genetics (FUSION) Study	MH	phs000100-T2D-001288	1				TYPE 2 DIABETES		Diabetes Mellitus Type 2		DIABETES		N							1																																																				1									
phs000100.v3.p1, The Finland-United States Investigation of NIDDM Genetics (FUSION) Study	MH	phs000100-T2D-001289	1				TYPE 2 DIABETES		Diabetes Mellitus Type 2		DIABETES		N							1																																																				1									
phs000100.v3.p1, The Finland-United States Investigation of NIDDM Genetics (FUSION) Study	MH	phs000100-T2D-001290	1				TYPE 2 DIABETES		Diabetes Mellitus Type 2		DIABETES		N							1																																																				1									
phs000100.v3.p1, The Finland-United States Investigation of NIDDM Genetics (FUSION) Study	MH	phs000100-T2D-001291	1				TYPE 2 DIABETES		Diabetes Mellitus Type 2		DIABETES		Y							1																																																				1									
phs000100.v3.p1, The Finland-United States Investigation of NIDDM Genetics (FUSION) Study	MH	phs000100-T2D-001292	1				TYPE 2 DIABETES		Diabetes Mellitus Type 2		DIABETES		N							1																																																				1									
phs000100.v3.p1, The Finland-United States Investigation of NIDDM Genetics (FUSION) Study	MH	phs000100-T2D-001293	1				TYPE 2 DIABETES		Diabetes Mellitus Type 2		DIABETES		Y							1																																																				1									
phs000100.v3.p1, The Finland-United States Investigation of NIDDM Genetics (FUSION) Study	MH	phs000100-T2D-001294	1				TYPE 2 DIABETES		Diabetes Mellitus Type 2		DIABETES		Y							1																																																				1									
phs000100.v3.p1, The Finland-United States Investigation of NIDDM Genetics (FUSION) Study	MH	phs000100-T2D-001295	1				TYPE 2 DIABETES		Diabetes Mellitus Type 2		DIABETES		Y							1																																																				1									
phs000100.v3.p1, The Finland-United States Investigation of NIDDM Genetics (FUSION) Study	MH	phs000100-T2D-001296	1				TYPE 2 DIABETES		Diabetes Mellitus Type 2		DIABETES		Y							1																																																				1									
phs000100.v3.p1, The Finland-United States Investigation of NIDDM Genetics (FUSION) Study	MH	phs000100-T2D-001297	1				TYPE 2 DIABETES		Diabetes Mellitus Type 2		DIABETES		N							1																																																				1									
phs000100.v3.p1, The Finland-United States Investigation of NIDDM Genetics (FUSION) Study	MH	phs000100-T2D-001298	1				TYPE 2 DIABETES		Diabetes Mellitus Type 2		DIABETES		Y							1																																																				1									
phs000100.v3.p1, The Finland-United States Investigation of NIDDM Genetics (FUSION) Study	MH	phs000100-T2D-001299	1				TYPE 2 DIABETES		Diabetes Mellitus Type 2		DIABETES		Y							1																																																				1									
phs000100.v3.p1, The Finland-United States Investigation of NIDDM Genetics (FUSION) Study	MH	phs000100-T2D-001300	1				TYPE 2 DIABETES		Diabetes Mellitus Type 2		DIABETES		N							1																																																				1									
phs000100.v3.p1, The Finland-United States Investigation of NIDDM Genetics (FUSION) Study	MH	phs000100-T2D-001301	1				TYPE 2 DIABETES		Diabetes Mellitus Type 2		DIABETES		Y							1																																																				1									
phs000100.v3.p1, The Finland-United States Investigation of NIDDM Genetics (FUSION) Study	MH	phs000100-T2D-001302	1				TYPE 2 DIABETES		Diabetes Mellitus Type 2		DIABETES		N							1																																																				1									
phs000100.v3.p1, The Finland-United States Investigation of NIDDM Genetics (FUSION) Study	MH	phs000100-T2D-001303	1				TYPE 2 DIABETES		Diabetes Mellitus Type 2		DIABETES		Y							1																																																				1									
phs000100.v3.p1, The Finland-United States Investigation of NIDDM Genetics (FUSION) Study	MH	phs000100-T2D-001304	1				TYPE 2 DIABETES		Diabetes Mellitus Type 2		DIABETES		N							1																																																				1									
phs000100.v3.p1, The Finland-United States Investigation of NIDDM Genetics (FUSION) Study	MH	phs000100-T2D-001305	1				TYPE 2 DIABETES		Diabetes Mellitus Type 2		DIABETES		Y							1																																																				1									
phs000100.v3.p1, The Finland-United States Investigation of NIDDM Genetics (FUSION) Study	MH	phs000100-T2D-001306	1				TYPE 2 DIABETES		Diabetes Mellitus Type 2		DIABETES		Y							1																																																				1									
phs000100.v3.p1, The Finland-United States Investigation of NIDDM Genetics (FUSION) Study	MH	phs000100-T2D-001307	1				TYPE 2 DIABETES		Diabetes Mellitus Type 2		DIABETES		Y							1																																																				1									
phs000100.v3.p1, The Finland-United States Investigation of NIDDM Genetics (FUSION) Study	MH	phs000100-T2D-001308	1				TYPE 2 DIABETES		Diabetes Mellitus Type 2		DIABETES		N							1																																																				1									
phs000100.v3.p1, The Finland-United States Investigation of NIDDM Genetics (FUSION) Study	MH	phs000100-T2D-001309	1				TYPE 2 DIABETES		Diabetes Mellitus Type 2		DIABETES		N							1																																																				1									
phs000100.v3.p1, The Finland-United States Investigation of NIDDM Genetics (FUSION) Study	MH	phs000100-T2D-001310	1				TYPE 2 DIABETES		Diabetes Mellitus Type 2		DIABETES		Y							1																																																				1									
phs000100.v3.p1, The Finland-United States Investigation of NIDDM Genetics (FUSION) Study	MH	phs000100-T2D-001311	1				TYPE 2 DIABETES		Diabetes Mellitus Type 2		DIABETES		Y							1																																																				1									
phs000100.v3.p1, The Finland-United States Investigation of NIDDM Genetics (FUSION) Study	MH	phs000100-T2D-001312	1				TYPE 2 DIABETES		Diabetes Mellitus Type 2		DIABETES		N							1																																																				1									
phs000100.v3.p1, The Finland-United States Investigation of NIDDM Genetics (FUSION) Study	MH	phs000100-T2D-001313	1				TYPE 2 DIABETES		Diabetes Mellitus Type 2		DIABETES		Y							1																																																				1									
phs000100.v3.p1, The Finland-United States Investigation of NIDDM Genetics (FUSION) Study	MH	phs000100-T2D-001314	1				TYPE 2 DIABETES		Diabetes Mellitus Type 2		DIABETES		Y							1																																																				1									
phs000100.v3.p1, The Finland-United States Investigation of NIDDM Genetics (FUSION) Study	MH	phs000100-T2D-001315	1				TYPE 2 DIABETES		Diabetes Mellitus Type 2		DIABETES		Y							1																																																				1									
phs000100.v3.p1, The Finland-United States Investigation of NIDDM Genetics (FUSION) Study	MH	phs000100-T2D-001316	1				TYPE 2 DIABETES		Diabetes Mellitus Type 2		DIABETES		N							1																																																				1									
phs000100.v3.p1, The Finland-United States Investigation of NIDDM Genetics (FUSION) Study	MH	phs000100-T2D-001317	1				TYPE 2 DIABETES		Diabetes Mellitus Type 2		DIABETES		Y							1																																																				1									
phs000100.v3.p1, The Finland-United States Investigation of NIDDM Genetics (FUSION) Study	MH	phs000100-T2D-001318	1				TYPE 2 DIABETES		Diabetes Mellitus Type 2		DIABETES		Y							1																																																				1									
phs000100.v3.p1, The Finland-United States Investigation of NIDDM Genetics (FUSION) Study	MH	phs000100-T2D-001319	1				TYPE 2 DIABETES		Diabetes Mellitus Type 2		DIABETES		N							1																																																				1									
phs000100.v3.p1, The Finland-United States Investigation of NIDDM Genetics (FUSION) Study	MH	phs000100-T2D-001320	1				TYPE 2 DIABETES		Diabetes Mellitus Type 2		DIABETES		N							1																																																				1									
phs000100.v3.p1, The Finland-United States Investigation of NIDDM Genetics (FUSION) Study	MH	phs000100-T2D-001321	1				TYPE 2 DIABETES		Diabetes Mellitus Type 2		DIABETES		N							1																																																				1									
phs000100.v3.p1, The Finland-United States Investigation of NIDDM Genetics (FUSION) Study	MH	phs000100-T2D-001322	1				TYPE 2 DIABETES		Diabetes Mellitus Type 2		DIABETES		N							1																																																				1									
phs000100.v3.p1, The Finland-United States Investigation of NIDDM Genetics (FUSION) Study	MH	phs000100-T2D-001323	1				TYPE 2 DIABETES		Diabetes Mellitus Type 2		DIABETES		N							1																																																				1									
phs000100.v3.p1, The Finland-United States Investigation of NIDDM Genetics (FUSION) Study	MH	phs000100-T2D-001324	1				TYPE 2 DIABETES		Diabetes Mellitus Type 2		DIABETES		Y							1																																																				1									
phs000100.v3.p1, The Finland-United States Investigation of NIDDM Genetics (FUSION) Study	MH	phs000100-T2D-001325	1				TYPE 2 DIABETES		Diabetes Mellitus Type 2		DIABETES		Y							1																																																				1									
phs000100.v3.p1, The Finland-United States Investigation of NIDDM Genetics (FUSION) Study	MH	phs000100-T2D-001326	1				TYPE 2 DIABETES		Diabetes Mellitus Type 2		DIABETES		N							1																																																				1									
phs000100.v3.p1, The Finland-United States Investigation of NIDDM Genetics (FUSION) Study	MH	phs000100-T2D-001327	1				TYPE 2 DIABETES		Diabetes Mellitus Type 2		DIABETES		Y							1																																																				1									
phs000100.v3.p1, The Finland-United States Investigation of NIDDM Genetics (FUSION) Study	MH	phs000100-T2D-001328	1				TYPE 2 DIABETES		Diabetes Mellitus Type 2		DIABETES		N							1																																																				1									
phs000100.v3.p1, The Finland-United States Investigation of NIDDM Genetics (FUSION) Study	MH	phs000100-T2D-001329	1				TYPE 2 DIABETES		Diabetes Mellitus Type 2		DIABETES		N							1																																																				1									
phs000100.v3.p1, The Finland-United States Investigation of NIDDM Genetics (FUSION) Study	MH	phs000100-T2D-001330	1				TYPE 2 DIABETES		Diabetes Mellitus Type 2		DIABETES		N							1																																																				1									
phs000100.v3.p1, The Finland-United States Investigation of NIDDM Genetics (FUSION) Study	MH	phs000100-T2D-001331	1				TYPE 2 DIABETES		Diabetes Mellitus Type 2		DIABETES		N							1																																																				1									
phs000100.v3.p1, The Finland-United States Investigation of NIDDM Genetics (FUSION) Study	MH	phs000100-T2D-001332	1				TYPE 2 DIABETES		Diabetes Mellitus Type 2		DIABETES		Y							1																																																				1									
phs000100.v3.p1, The Finland-United States Investigation of NIDDM Genetics (FUSION) Study	MH	phs000100-T2D-001333	1				TYPE 2 DIABETES		Diabetes Mellitus Type 2		DIABETES		N							1																																																				1									
phs000100.v3.p1, The Finland-United States Investigation of NIDDM Genetics (FUSION) Study	MH	phs000100-T2D-001334	1				TYPE 2 DIABETES		Diabetes Mellitus Type 2		DIABETES		Y							1																																																				1									
phs000100.v3.p1, The Finland-United States Investigation of NIDDM Genetics (FUSION) Study	MH	phs000100-T2D-001335	1				TYPE 2 DIABETES		Diabetes Mellitus Type 2		DIABETES		N							1																																																				1									
phs000100.v3.p1, The Finland-United States Investigation of NIDDM Genetics (FUSION) Study	MH	phs000100-T2D-001336	1				TYPE 2 DIABETES		Diabetes Mellitus Type 2		DIABETES		N							1																																																				1									
phs000100.v3.p1, The Finland-United States Investigation of NIDDM Genetics (FUSION) Study	MH	phs000100-T2D-001337	1				TYPE 2 DIABETES		Diabetes Mellitus Type 2		DIABETES		N							1																																																				1									
phs000100.v3.p1, The Finland-United States Investigation of NIDDM Genetics (FUSION) Study	MH	phs000100-T2D-001338	1				TYPE 2 DIABETES		Diabetes Mellitus Type 2		DIABETES		N							1																																																				1									
phs000100.v3.p1, The Finland-United States Investigation of NIDDM Genetics (FUSION) Study	MH	phs000100-T2D-001339	1				TYPE 2 DIABETES		Diabetes Mellitus Type 2		DIABETES		Y							1																																																				1									
phs000100.v3.p1, The Finland-United States Investigation of NIDDM Genetics (FUSION) Study	MH	phs000100-T2D-001340	1				TYPE 2 DIABETES		Diabetes Mellitus Type 2		DIABETES		N							1																																																				1									
phs000100.v3.p1, The Finland-United States Investigation of NIDDM Genetics (FUSION) Study	MH	phs000100-T2D-001341	1				TYPE 2 DIABETES		Diabetes Mellitus Type 2		DIABETES		Y							1																																																				1									
phs000100.v3.p1, The Finland-United States Investigation of NIDDM Genetics (FUSION) Study	MH	phs000100-T2D-001342	1				TYPE 2 DIABETES		Diabetes Mellitus Type 2		DIABETES		N							1																																																				1									
phs000100.v3.p1, The Finland-United States Investigation of NIDDM Genetics (FUSION) Study	MH	phs000100-T2D-001343	1				TYPE 2 DIABETES		Diabetes Mellitus Type 2		DIABETES		N							1																																																				1									
phs000100.v3.p1, The Finland-United States Investigation of NIDDM Genetics (FUSION) Study	MH	phs000100-T2D-001344	1				TYPE 2 DIABETES		Diabetes Mellitus Type 2		DIABETES		Y							1																																																				1									
phs000100.v3.p1, The Finland-United States Investigation of NIDDM Genetics (FUSION) Study	MH	phs000100-T2D-001345	1				TYPE 2 DIABETES		Diabetes Mellitus Type 2		DIABETES		N							1																																																				1									
phs000100.v3.p1, The Finland-United States Investigation of NIDDM Genetics (FUSION) Study	MH	phs000100-T2D-001346	1				TYPE 2 DIABETES		Diabetes Mellitus Type 2		DIABETES		Y							1																																																				1									
phs000100.v3.p1, The Finland-United States Investigation of NIDDM Genetics (FUSION) Study	MH	phs000100-T2D-001347	1				TYPE 2 DIABETES		Diabetes Mellitus Type 2		DIABETES		N							1																																																				1									
phs000100.v3.p1, The Finland-United States Investigation of NIDDM Genetics (FUSION) Study	MH	phs000100-T2D-001348	1				TYPE 2 DIABETES		Diabetes Mellitus Type 2		DIABETES		Y							1																																																				1									
phs000100.v3.p1, The Finland-United States Investigation of NIDDM Genetics (FUSION) Study	MH	phs000100-T2D-001349	1				TYPE 2 DIABETES		Diabetes Mellitus Type 2		DIABETES		N							1																																																				1									
phs000100.v3.p1, The Finland-United States Investigation of NIDDM Genetics (FUSION) Study	MH	phs000100-T2D-001350	1				TYPE 2 DIABETES		Diabetes Mellitus Type 2		DIABETES		Y							1																																																				1									
phs000100.v3.p1, The Finland-United States Investigation of NIDDM Genetics (FUSION) Study	MH	phs000100-T2D-001351	1				TYPE 2 DIABETES		Diabetes Mellitus Type 2		DIABETES		Y							1																																																				1									
phs000100.v3.p1, The Finland-United States Investigation of NIDDM Genetics (FUSION) Study	MH	phs000100-T2D-001352	1				TYPE 2 DIABETES		Diabetes Mellitus Type 2		DIABETES		N							1																																																				1									
phs000100.v3.p1, The Finland-United States Investigation of NIDDM Genetics (FUSION) Study	MH	phs000100-T2D-001353	1				TYPE 2 DIABETES		Diabetes Mellitus Type 2		DIABETES		Y							1																																																				1									
phs000100.v3.p1, The Finland-United States Investigation of NIDDM Genetics (FUSION) Study	MH	phs000100-T2D-001354	1				TYPE 2 DIABETES		Diabetes Mellitus Type 2		DIABETES		N							1																																																				1									
phs000100.v3.p1, The Finland-United States Investigation of NIDDM Genetics (FUSION) Study	MH	phs000100-T2D-001355	1				TYPE 2 DIABETES		Diabetes Mellitus Type 2		DIABETES		Y							1																																																				1									
phs000100.v3.p1, The Finland-United States Investigation of NIDDM Genetics (FUSION) Study	MH	phs000100-T2D-001356	1				TYPE 2 DIABETES		Diabetes Mellitus Type 2		DIABETES		Y							1																																																				1									
phs000100.v3.p1, The Finland-United States Investigation of NIDDM Genetics (FUSION) Study	MH	phs000100-T2D-001357	1				TYPE 2 DIABETES		Diabetes Mellitus Type 2		DIABETES		Y							1																																																				1									
phs000100.v3.p1, The Finland-United States Investigation of NIDDM Genetics (FUSION) Study	MH	phs000100-T2D-001358	1				TYPE 2 DIABETES		Diabetes Mellitus Type 2		DIABETES		N							1																																																				1									
phs000100.v3.p1, The Finland-United States Investigation of NIDDM Genetics (FUSION) Study	MH	phs000100-T2D-001359	1				TYPE 2 DIABETES		Diabetes Mellitus Type 2		DIABETES		Y							1																																																				1									
phs000100.v3.p1, The Finland-United States Investigation of NIDDM Genetics (FUSION) Study	MH	phs000100-T2D-001360	1				TYPE 2 DIABETES		Diabetes Mellitus Type 2		DIABETES		N							1																																																				1									
phs000100.v3.p1, The Finland-United States Investigation of NIDDM Genetics (FUSION) Study	MH	phs000100-T2D-001361	1				TYPE 2 DIABETES		Diabetes Mellitus Type 2		DIABETES		N							1																																																				1									
phs000100.v3.p1, The Finland-United States Investigation of NIDDM Genetics (FUSION) Study	MH	phs000100-T2D-001362	1				TYPE 2 DIABETES		Diabetes Mellitus Type 2		DIABETES		Y							1																																																				1									
phs000100.v3.p1, The Finland-United States Investigation of NIDDM Genetics (FUSION) Study	MH	phs000100-T2D-001363	1				TYPE 2 DIABETES		Diabetes Mellitus Type 2		DIABETES		N							1																																																				1									
phs000100.v3.p1, The Finland-United States Investigation of NIDDM Genetics (FUSION) Study	MH	phs000100-T2D-001364	1				TYPE 2 DIABETES		Diabetes Mellitus Type 2		DIABETES		Y							1																																																				1									
phs000100.v3.p1, The Finland-United States Investigation of NIDDM Genetics (FUSION) Study	MH	phs000100-T2D-001365	1				TYPE 2 DIABETES		Diabetes Mellitus Type 2		DIABETES		Y							1																																																				1									
phs000100.v3.p1, The Finland-United States Investigation of NIDDM Genetics (FUSION) Study	MH	phs000100-T2D-001366	1				TYPE 2 DIABETES		Diabetes Mellitus Type 2		DIABETES		N							1																																																				1									
phs000100.v3.p1, The Finland-United States Investigation of NIDDM Genetics (FUSION) Study	MH	phs000100-T2D-001367	1				TYPE 2 DIABETES		Diabetes Mellitus Type 2		DIABETES		N							1																																																				1									
phs000100.v3.p1, The Finland-United States Investigation of NIDDM Genetics (FUSION) Study	MH	phs000100-T2D-001368	1				TYPE 2 DIABETES		Diabetes Mellitus Type 2		DIABETES		Y							1																																																				1									
phs000100.v3.p1, The Finland-United States Investigation of NIDDM Genetics (FUSION) Study	MH	phs000100-T2D-001369	1				TYPE 2 DIABETES		Diabetes Mellitus Type 2		DIABETES		Y							1																																																				1									
phs000100.v3.p1, The Finland-United States Investigation of NIDDM Genetics (FUSION) Study	MH	phs000100-T2D-001370	1				TYPE 2 DIABETES		Diabetes Mellitus Type 2		DIABETES		Y							1																																																				1									
phs000100.v3.p1, The Finland-United States Investigation of NIDDM Genetics (FUSION) Study	MH	phs000100-T2D-001371	1				TYPE 2 DIABETES		Diabetes Mellitus Type 2		DIABETES		Y							1																																																				1									
phs000100.v3.p1, The Finland-United States Investigation of NIDDM Genetics (FUSION) Study	MH	phs000100-T2D-001372	1				TYPE 2 DIABETES		Diabetes Mellitus Type 2		DIABETES		N							1																																																				1									
phs000100.v3.p1, The Finland-United States Investigation of NIDDM Genetics (FUSION) Study	MH	phs000100-T2D-001373	1				TYPE 2 DIABETES		Diabetes Mellitus Type 2		DIABETES		N							1																																																				1									
phs000100.v3.p1, The Finland-United States Investigation of NIDDM Genetics (FUSION) Study	MH	phs000100-T2D-001374	1				TYPE 2 DIABETES		Diabetes Mellitus Type 2		DIABETES		Y							1																																																				1									
phs000100.v3.p1, The Finland-United States Investigation of NIDDM Genetics (FUSION) Study	MH	phs000100-T2D-001375	1				TYPE 2 DIABETES		Diabetes Mellitus Type 2		DIABETES		N							1																																																				1									
phs000100.v3.p1, The Finland-United States Investigation of NIDDM Genetics (FUSION) Study	MH	phs000100-T2D-001376	1				TYPE 2 DIABETES		Diabetes Mellitus Type 2		DIABETES		Y							1																																																				1									
phs000100.v3.p1, The Finland-United States Investigation of NIDDM Genetics (FUSION) Study	MH	phs000100-T2D-001377	1				TYPE 2 DIABETES		Diabetes Mellitus Type 2		DIABETES		Y							1																																																				1									
phs000100.v3.p1, The Finland-United States Investigation of NIDDM Genetics (FUSION) Study	MH	phs000100-T2D-001378	1				TYPE 2 DIABETES		Diabetes Mellitus Type 2		DIABETES		N							1																																																				1									
phs000100.v3.p1, The Finland-United States Investigation of NIDDM Genetics (FUSION) Study	MH	phs000100-T2D-001379	1				TYPE 2 DIABETES		Diabetes Mellitus Type 2		DIABETES		Y							1																																																				1									
phs000100.v3.p1, The Finland-United States Investigation of NIDDM Genetics (FUSION) Study	MH	phs000100-T2D-001380	1				TYPE 2 DIABETES		Diabetes Mellitus Type 2		DIABETES		N							1																																																				1									
phs000100.v3.p1, The Finland-United States Investigation of NIDDM Genetics (FUSION) Study	MH	phs000100-T2D-001381	1				TYPE 2 DIABETES		Diabetes Mellitus Type 2		DIABETES		N							1																																																				1									
phs000100.v3.p1, The Finland-United States Investigation of NIDDM Genetics (FUSION) Study	MH	phs000100-T2D-001382	1				TYPE 2 DIABETES		Diabetes Mellitus Type 2		DIABETES		N							1																																																				1									
phs000100.v3.p1, The Finland-United States Investigation of NIDDM Genetics (FUSION) Study	MH	phs000100-T2D-001383	1				TYPE 2 DIABETES		Diabetes Mellitus Type 2		DIABETES		Y							1																																																				1									
phs000100.v3.p1, The Finland-United States Investigation of NIDDM Genetics (FUSION) Study	MH	phs000100-T2D-001384	1				TYPE 2 DIABETES		Diabetes Mellitus Type 2		DIABETES		N							1																																																				1									
phs000100.v3.p1, The Finland-United States Investigation of NIDDM Genetics (FUSION) Study	MH	phs000100-T2D-001385	1				TYPE 2 DIABETES		Diabetes Mellitus Type 2		DIABETES		N							1																																																				1									
phs000100.v3.p1, The Finland-United States Investigation of NIDDM Genetics (FUSION) Study	MH	phs000100-T2D-001386	1				TYPE 2 DIABETES		Diabetes Mellitus Type 2		DIABETES		N							1																																																				1									
phs000100.v3.p1, The Finland-United States Investigation of NIDDM Genetics (FUSION) Study	MH	phs000100-T2D-001387	1				TYPE 2 DIABETES		Diabetes Mellitus Type 2		DIABETES		Y							1																																																				1									
phs000100.v3.p1, The Finland-United States Investigation of NIDDM Genetics (FUSION) Study	MH	phs000100-T2D-001388	1				TYPE 2 DIABETES		Diabetes Mellitus Type 2		DIABETES		Y							1																																																				1									
phs000100.v3.p1, The Finland-United States Investigation of NIDDM Genetics (FUSION) Study	MH	phs000100-T2D-001389	1				TYPE 2 DIABETES		Diabetes Mellitus Type 2		DIABETES		Y							1																																																				1									
phs000100.v3.p1, The Finland-United States Investigation of NIDDM Genetics (FUSION) Study	MH	phs000100-T2D-001390	1				TYPE 2 DIABETES		Diabetes Mellitus Type 2		DIABETES		N							1																																																				1									
phs000100.v3.p1, The Finland-United States Investigation of NIDDM Genetics (FUSION) Study	MH	phs000100-T2D-001391	1				TYPE 2 DIABETES		Diabetes Mellitus Type 2		DIABETES		N							1																																																				1									
phs000100.v3.p1, The Finland-United States Investigation of NIDDM Genetics (FUSION) Study	MH	phs000100-T2D-001392	1				TYPE 2 DIABETES		Diabetes Mellitus Type 2		DIABETES		Y							1																																																				1									
phs000100.v3.p1, The Finland-United States Investigation of NIDDM Genetics (FUSION) Study	MH	phs000100-T2D-001393	1				TYPE 2 DIABETES		Diabetes Mellitus Type 2		DIABETES		Y							1																																																				1									
phs000100.v3.p1, The Finland-United States Investigation of NIDDM Genetics (FUSION) Study	MH	phs000100-T2D-001394	1				TYPE 2 DIABETES		Diabetes Mellitus Type 2		DIABETES		N							1																																																				1									
phs000100.v3.p1, The Finland-United States Investigation of NIDDM Genetics (FUSION) Study	MH	phs000100-T2D-001395	1				TYPE 2 DIABETES		Diabetes Mellitus Type 2		DIABETES		N							1																																																				1									
phs000100.v3.p1, The Finland-United States Investigation of NIDDM Genetics (FUSION) Study	MH	phs000100-T2D-001396	1				TYPE 2 DIABETES		Diabetes Mellitus Type 2		DIABETES		Y							1																																																				1									
phs000100.v3.p1, The Finland-United States Investigation of NIDDM Genetics (FUSION) Study	MH	phs000100-T2D-001397	1				TYPE 2 DIABETES		Diabetes Mellitus Type 2		DIABETES		Y							1																																																				1									
phs000100.v3.p1, The Finland-United States Investigation of NIDDM Genetics (FUSION) Study	MH	phs000100-T2D-001398	1				TYPE 2 DIABETES		Diabetes Mellitus Type 2		DIABETES		Y							1																																																				1									
phs000100.v3.p1, The Finland-United States Investigation of NIDDM Genetics (FUSION) Study	MH	phs000100-T2D-001399	1				TYPE 2 DIABETES		Diabetes Mellitus Type 2		DIABETES		Y							1																																																				1									
phs000100.v3.p1, The Finland-United States Investigation of NIDDM Genetics (FUSION) Study	MH	phs000100-T2D-001400	1				TYPE 2 DIABETES		Diabetes Mellitus Type 2		DIABETES		Y							1																																																				1									
phs000100.v3.p1, The Finland-United States Investigation of NIDDM Genetics (FUSION) Study	MH	phs000100-T2D-001401	1				TYPE 2 DIABETES		Diabetes Mellitus Type 2		DIABETES		N							1																																																				1									
phs000100.v3.p1, The Finland-United States Investigation of NIDDM Genetics (FUSION) Study	MH	phs000100-T2D-001402	1				TYPE 2 DIABETES		Diabetes Mellitus Type 2		DIABETES		N							1																																																				1									
phs000100.v3.p1, The Finland-United States Investigation of NIDDM Genetics (FUSION) Study	MH	phs000100-T2D-001403	1				TYPE 2 DIABETES		Diabetes Mellitus Type 2		DIABETES		Y							1																																																				1									
phs000100.v3.p1, The Finland-United States Investigation of NIDDM Genetics (FUSION) Study	MH	phs000100-T2D-001404	1				TYPE 2 DIABETES		Diabetes Mellitus Type 2		DIABETES		Y							1																																																				1									
phs000100.v3.p1, The Finland-United States Investigation of NIDDM Genetics (FUSION) Study	MH	phs000100-T2D-001405	1				TYPE 2 DIABETES		Diabetes Mellitus Type 2		DIABETES		N							1																																																				1									
phs000100.v3.p1, The Finland-United States Investigation of NIDDM Genetics (FUSION) Study	MH	phs000100-T2D-001406	1				TYPE 2 DIABETES		Diabetes Mellitus Type 2		DIABETES		N							1																																																				1									
phs000100.v3.p1, The Finland-United States Investigation of NIDDM Genetics (FUSION) Study	MH	phs000100-T2D-001407	1				TYPE 2 DIABETES		Diabetes Mellitus Type 2		DIABETES		Y							1																																																				1									
phs000100.v3.p1, The Finland-United States Investigation of NIDDM Genetics (FUSION) Study	MH	phs000100-T2D-001408	1				TYPE 2 DIABETES		Diabetes Mellitus Type 2		DIABETES		Y							1																																																				1									
phs000100.v3.p1, The Finland-United States Investigation of NIDDM Genetics (FUSION) Study	MH	phs000100-T2D-001409	1				TYPE 2 DIABETES		Diabetes Mellitus Type 2		DIABETES		Y							1																																																				1									
phs000100.v3.p1, The Finland-United States Investigation of NIDDM Genetics (FUSION) Study	MH	phs000100-T2D-001410	1				TYPE 2 DIABETES		Diabetes Mellitus Type 2		DIABETES		N							1																																																				1									
phs000100.v3.p1, The Finland-United States Investigation of NIDDM Genetics (FUSION) Study	MH	phs000100-T2D-001411	1				TYPE 2 DIABETES		Diabetes Mellitus Type 2		DIABETES		N							1																																																				1									
phs000100.v3.p1, The Finland-United States Investigation of NIDDM Genetics (FUSION) Study	MH	phs000100-T2D-001412	1				TYPE 2 DIABETES		Diabetes Mellitus Type 2		DIABETES		Y							1																																																				1									
phs000100.v3.p1, The Finland-United States Investigation of NIDDM Genetics (FUSION) Study	MH	phs000100-T2D-001413	1				TYPE 2 DIABETES		Diabetes Mellitus Type 2		DIABETES		N							1																																																				1									
phs000100.v3.p1, The Finland-United States Investigation of NIDDM Genetics (FUSION) Study	MH	phs000100-T2D-001414	1				TYPE 2 DIABETES		Diabetes Mellitus Type 2		DIABETES		N							1																																																				1									
phs000100.v3.p1, The Finland-United States Investigation of NIDDM Genetics (FUSION) Study	MH	phs000100-T2D-001415	1				TYPE 2 DIABETES		Diabetes Mellitus Type 2		DIABETES		N							1																																																				1									
phs000100.v3.p1, The Finland-United States Investigation of NIDDM Genetics (FUSION) Study	MH	phs000100-T2D-001416	1				TYPE 2 DIABETES		Diabetes Mellitus Type 2		DIABETES		N							1																																																				1									
phs000100.v3.p1, The Finland-United States Investigation of NIDDM Genetics (FUSION) Study	MH	phs000100-T2D-001417	1				TYPE 2 DIABETES		Diabetes Mellitus Type 2		DIABETES		N							1																																																				1									
phs000100.v3.p1, The Finland-United States Investigation of NIDDM Genetics (FUSION) Study	MH	phs000100-T2D-001418	1				TYPE 2 DIABETES		Diabetes Mellitus Type 2		DIABETES		Y							1																																																				1									
phs000100.v3.p1, The Finland-United States Investigation of NIDDM Genetics (FUSION) Study	MH	phs000100-T2D-001419	1				TYPE 2 DIABETES		Diabetes Mellitus Type 2		DIABETES		N							1																																																				1									
phs000100.v3.p1, The Finland-United States Investigation of NIDDM Genetics (FUSION) Study	MH	phs000100-T2D-001420	1				TYPE 2 DIABETES		Diabetes Mellitus Type 2		DIABETES		Y							1																																																				1									
phs000100.v3.p1, The Finland-United States Investigation of NIDDM Genetics (FUSION) Study	MH	phs000100-T2D-001421	1				TYPE 2 DIABETES		Diabetes Mellitus Type 2		DIABETES		Y							1																																																				1									
phs000100.v3.p1, The Finland-United States Investigation of NIDDM Genetics (FUSION) Study	MH	phs000100-T2D-001422	1				TYPE 2 DIABETES		Diabetes Mellitus Type 2		DIABETES		Y							1																																																				1									
phs000100.v3.p1, The Finland-United States Investigation of NIDDM Genetics (FUSION) Study	MH	phs000100-T2D-001423	1				TYPE 2 DIABETES		Diabetes Mellitus Type 2		DIABETES		Y							1																																																				1									
phs000100.v3.p1, The Finland-United States Investigation of NIDDM Genetics (FUSION) Study	MH	phs000100-T2D-001424	1				TYPE 2 DIABETES		Diabetes Mellitus Type 2		DIABETES		N							1																																																				1									
phs000100.v3.p1, The Finland-United States Investigation of NIDDM Genetics (FUSION) Study	MH	phs000100-T2D-001425	1				TYPE 2 DIABETES		Diabetes Mellitus Type 2		DIABETES		Y							1																																																				1									
phs000100.v3.p1, The Finland-United States Investigation of NIDDM Genetics (FUSION) Study	MH	phs000100-T2D-001426	1				TYPE 2 DIABETES		Diabetes Mellitus Type 2		DIABETES		N							1																																																				1									
phs000100.v3.p1, The Finland-United States Investigation of NIDDM Genetics (FUSION) Study	MH	phs000100-T2D-001427	1				TYPE 2 DIABETES		Diabetes Mellitus Type 2		DIABETES		N							1																																																				1									
phs000100.v3.p1, The Finland-United States Investigation of NIDDM Genetics (FUSION) Study	MH	phs000100-T2D-001428	1				TYPE 2 DIABETES		Diabetes Mellitus Type 2		DIABETES		N							1																																																				1									
phs000100.v3.p1, The Finland-United States Investigation of NIDDM Genetics (FUSION) Study	MH	phs000100-T2D-001429	1				TYPE 2 DIABETES		Diabetes Mellitus Type 2		DIABETES		Y							1																																																				1									
phs000100.v3.p1, The Finland-United States Investigation of NIDDM Genetics (FUSION) Study	MH	phs000100-T2D-001430	1				TYPE 2 DIABETES		Diabetes Mellitus Type 2		DIABETES		N							1																																																				1									
phs000100.v3.p1, The Finland-United States Investigation of NIDDM Genetics (FUSION) Study	MH	phs000100-T2D-001431	1				TYPE 2 DIABETES		Diabetes Mellitus Type 2		DIABETES		N							1																																																				1									
phs000100.v3.p1, The Finland-United States Investigation of NIDDM Genetics (FUSION) Study	MH	phs000100-T2D-001432	1				TYPE 2 DIABETES		Diabetes Mellitus Type 2		DIABETES		Y							1																																																				1									
phs000100.v3.p1, The Finland-United States Investigation of NIDDM Genetics (FUSION) Study	MH	phs000100-T2D-001433	1				TYPE 2 DIABETES		Diabetes Mellitus Type 2		DIABETES		N							1																																																				1									
phs000100.v3.p1, The Finland-United States Investigation of NIDDM Genetics (FUSION) Study	MH	phs000100-T2D-001434	1				TYPE 2 DIABETES		Diabetes Mellitus Type 2		DIABETES		N							1																																																				1									
phs000100.v3.p1, The Finland-United States Investigation of NIDDM Genetics (FUSION) Study	MH	phs000100-T2D-001435	1				TYPE 2 DIABETES		Diabetes Mellitus Type 2		DIABETES		N							1																																																				1									
phs000100.v3.p1, The Finland-United States Investigation of NIDDM Genetics (FUSION) Study	MH	phs000100-T2D-001436	1				TYPE 2 DIABETES		Diabetes Mellitus Type 2		DIABETES		N							1																																																				1									
phs000100.v3.p1, The Finland-United States Investigation of NIDDM Genetics (FUSION) Study	MH	phs000100-T2D-001437	1				TYPE 2 DIABETES		Diabetes Mellitus Type 2		DIABETES		Y							1																																																				1									
phs000100.v3.p1, The Finland-United States Investigation of NIDDM Genetics (FUSION) Study	MH	phs000100-T2D-001438	1				TYPE 2 DIABETES		Diabetes Mellitus Type 2		DIABETES		N							1																																																				1									
phs000100.v3.p1, The Finland-United States Investigation of NIDDM Genetics (FUSION) Study	MH	phs000100-T2D-001439	1				TYPE 2 DIABETES		Diabetes Mellitus Type 2		DIABETES		Y							1																																																				1									
phs000100.v3.p1, The Finland-United States Investigation of NIDDM Genetics (FUSION) Study	MH	phs000100-T2D-001440	1				TYPE 2 DIABETES		Diabetes Mellitus Type 2		DIABETES		Y							1																																																				1									
phs000100.v3.p1, The Finland-United States Investigation of NIDDM Genetics (FUSION) Study	MH	phs000100-T2D-001441	1				TYPE 2 DIABETES		Diabetes Mellitus Type 2		DIABETES		N							1																																																				1									
phs000100.v3.p1, The Finland-United States Investigation of NIDDM Genetics (FUSION) Study	MH	phs000100-T2D-001442	1				TYPE 2 DIABETES		Diabetes Mellitus Type 2		DIABETES		N							1																																																				1									
phs000100.v3.p1, The Finland-United States Investigation of NIDDM Genetics (FUSION) Study	MH	phs000100-T2D-001443	1				TYPE 2 DIABETES		Diabetes Mellitus Type 2		DIABETES		Y							1																																																				1									
phs000100.v3.p1, The Finland-United States Investigation of NIDDM Genetics (FUSION) Study	MH	phs000100-T2D-001444	1				TYPE 2 DIABETES		Diabetes Mellitus Type 2		DIABETES		N							1																																																				1									
phs000100.v3.p1, The Finland-United States Investigation of NIDDM Genetics (FUSION) Study	MH	phs000100-T2D-001445	1				TYPE 2 DIABETES		Diabetes Mellitus Type 2		DIABETES		Y							1																																																				1									
phs000100.v3.p1, The Finland-United States Investigation of NIDDM Genetics (FUSION) Study	MH	phs000100-T2D-001446	1				TYPE 2 DIABETES		Diabetes Mellitus Type 2		DIABETES		Y							1																																																				1									
phs000100.v3.p1, The Finland-United States Investigation of NIDDM Genetics (FUSION) Study	MH	phs000100-T2D-001447	1				TYPE 2 DIABETES		Diabetes Mellitus Type 2		DIABETES		N							1																																																				1									
phs000100.v3.p1, The Finland-United States Investigation of NIDDM Genetics (FUSION) Study	MH	phs000100-T2D-001448	1				TYPE 2 DIABETES		Diabetes Mellitus Type 2		DIABETES		N							1																																																				1									
phs000100.v3.p1, The Finland-United States Investigation of NIDDM Genetics (FUSION) Study	MH	phs000100-T2D-001449	1				TYPE 2 DIABETES		Diabetes Mellitus Type 2		DIABETES		Y							1																																																				1									
phs000100.v3.p1, The Finland-United States Investigation of NIDDM Genetics (FUSION) Study	MH	phs000100-T2D-001450	1				TYPE 2 DIABETES		Diabetes Mellitus Type 2		DIABETES		N							1																																																				1									
phs000100.v3.p1, The Finland-United States Investigation of NIDDM Genetics (FUSION) Study	MH	phs000100-T2D-001451	1				TYPE 2 DIABETES		Diabetes Mellitus Type 2		DIABETES		N							1																																																				1									
phs000100.v3.p1, The Finland-United States Investigation of NIDDM Genetics (FUSION) Study	MH	phs000100-T2D-001452	1				TYPE 2 DIABETES		Diabetes Mellitus Type 2		DIABETES		N							1																																																				1									
phs000100.v3.p1, The Finland-United States Investigation of NIDDM Genetics (FUSION) Study	MH	phs000100-T2D-001453	1				TYPE 2 DIABETES		Diabetes Mellitus Type 2		DIABETES		Y							1																																																				1									
phs000100.v3.p1, The Finland-United States Investigation of NIDDM Genetics (FUSION) Study	MH	phs000100-T2D-001454	1				TYPE 2 DIABETES		Diabetes Mellitus Type 2		DIABETES		Y							1																																																				1									
phs000100.v3.p1, The Finland-United States Investigation of NIDDM Genetics (FUSION) Study	MH	phs000100-T2D-001455	1				TYPE 2 DIABETES		Diabetes Mellitus Type 2		DIABETES		Y							1																																																				1									
phs000100.v3.p1, The Finland-United States Investigation of NIDDM Genetics (FUSION) Study	MH	phs000100-T2D-001456	1				TYPE 2 DIABETES		Diabetes Mellitus Type 2		DIABETES		N							1																																																				1									
phs000100.v3.p1, The Finland-United States Investigation of NIDDM Genetics (FUSION) Study	MH	phs000100-T2D-001457	1				TYPE 2 DIABETES		Diabetes Mellitus Type 2		DIABETES		N							1																																																				1									
phs000100.v3.p1, The Finland-United States Investigation of NIDDM Genetics (FUSION) Study	MH	phs000100-T2D-001458	1				TYPE 2 DIABETES		Diabetes Mellitus Type 2		DIABETES		Y							1																																																				1									
phs000100.v3.p1, The Finland-United States Investigation of NIDDM Genetics (FUSION) Study	MH	phs000100-T2D-001459	1				TYPE 2 DIABETES		Diabetes Mellitus Type 2		DIABETES		Y							1																																																				1									
phs000100.v3.p1, The Finland-United States Investigation of NIDDM Genetics (FUSION) Study	MH	phs000100-T2D-001460	1				TYPE 2 DIABETES		Diabetes Mellitus Type 2		DIABETES		Y							1																																																				1									
phs000100.v3.p1, The Finland-United States Investigation of NIDDM Genetics (FUSION) Study	MH	phs000100-T2D-001461	1				TYPE 2 DIABETES		Diabetes Mellitus Type 2		DIABETES		Y							1																																																				1									
phs000100.v3.p1, The Finland-United States Investigation of NIDDM Genetics (FUSION) Study	MH	phs000100-T2D-001462	1				TYPE 2 DIABETES		Diabetes Mellitus Type 2		DIABETES		Y							1																																																				1									
phs000100.v3.p1, The Finland-United States Investigation of NIDDM Genetics (FUSION) Study	MH	phs000100-T2D-001463	1				TYPE 2 DIABETES		Diabetes Mellitus Type 2		DIABETES		N							1																																																				1									
phs000100.v3.p1, The Finland-United States Investigation of NIDDM Genetics (FUSION) Study	MH	phs000100-T2D-001464	1				TYPE 2 DIABETES		Diabetes Mellitus Type 2		DIABETES		Y							1																																																				1									
phs000100.v3.p1, The Finland-United States Investigation of NIDDM Genetics (FUSION) Study	MH	phs000100-T2D-001465	1				TYPE 2 DIABETES		Diabetes Mellitus Type 2		DIABETES		N							1																																																				1									
phs000100.v3.p1, The Finland-United States Investigation of NIDDM Genetics (FUSION) Study	MH	phs000100-T2D-001466	1				TYPE 2 DIABETES		Diabetes Mellitus Type 2		DIABETES		Y							1																																																				1									
phs000100.v3.p1, The Finland-United States Investigation of NIDDM Genetics (FUSION) Study	MH	phs000100-T2D-001467	1				TYPE 2 DIABETES		Diabetes Mellitus Type 2		DIABETES		N							1																																																				1									
phs000100.v3.p1, The Finland-United States Investigation of NIDDM Genetics (FUSION) Study	MH	phs000100-T2D-001468	1				TYPE 2 DIABETES		Diabetes Mellitus Type 2		DIABETES		Y							1																																																				1									
phs000100.v3.p1, The Finland-United States Investigation of NIDDM Genetics (FUSION) Study	MH	phs000100-T2D-001469	1				TYPE 2 DIABETES		Diabetes Mellitus Type 2		DIABETES		Y							1																																																				1									
phs000100.v3.p1, The Finland-United States Investigation of NIDDM Genetics (FUSION) Study	MH	phs000100-T2D-001470	1				TYPE 2 DIABETES		Diabetes Mellitus Type 2		DIABETES		Y							1																																																				1									
phs000100.v3.p1, The Finland-United States Investigation of NIDDM Genetics (FUSION) Study	MH	phs000100-T2D-001471	1				TYPE 2 DIABETES		Diabetes Mellitus Type 2		DIABETES		N							1																																																				1									
phs000100.v3.p1, The Finland-United States Investigation of NIDDM Genetics (FUSION) Study	MH	phs000100-T2D-001472	1				TYPE 2 DIABETES		Diabetes Mellitus Type 2		DIABETES		N							1																																																				1									
phs000100.v3.p1, The Finland-United States Investigation of NIDDM Genetics (FUSION) Study	MH	phs000100-T2D-001473	1				TYPE 2 DIABETES		Diabetes Mellitus Type 2		DIABETES		Y							1																																																				1									
phs000100.v3.p1, The Finland-United States Investigation of NIDDM Genetics (FUSION) Study	MH	phs000100-T2D-001474	1				TYPE 2 DIABETES		Diabetes Mellitus Type 2		DIABETES		N							1																																																				1									
phs000100.v3.p1, The Finland-United States Investigation of NIDDM Genetics (FUSION) Study	MH	phs000100-T2D-001475	1				TYPE 2 DIABETES		Diabetes Mellitus Type 2		DIABETES		N							1																																																				1									
phs000100.v3.p1, The Finland-United States Investigation of NIDDM Genetics (FUSION) Study	MH	phs000100-T2D-001476	1				TYPE 2 DIABETES		Diabetes Mellitus Type 2		DIABETES		N							1																																																				1									
phs000100.v3.p1, The Finland-United States Investigation of NIDDM Genetics (FUSION) Study	MH	phs000100-T2D-001477	1				TYPE 2 DIABETES		Diabetes Mellitus Type 2		DIABETES		N							1																																																				1									
phs000100.v3.p1, The Finland-United States Investigation of NIDDM Genetics (FUSION) Study	MH	phs000100-T2D-001478	1				TYPE 2 DIABETES		Diabetes Mellitus Type 2		DIABETES		Y							1																																																				1									
phs000100.v3.p1, The Finland-United States Investigation of NIDDM Genetics (FUSION) Study	MH	phs000100-T2D-001479	1				TYPE 2 DIABETES		Diabetes Mellitus Type 2		DIABETES		Y							1																																																				1									
phs000100.v3.p1, The Finland-United States Investigation of NIDDM Genetics (FUSION) Study	MH	phs000100-T2D-001480	1				TYPE 2 DIABETES		Diabetes Mellitus Type 2		DIABETES		N							1																																																				1									
phs000100.v3.p1, The Finland-United States Investigation of NIDDM Genetics (FUSION) Study	MH	phs000100-T2D-001481	1				TYPE 2 DIABETES		Diabetes Mellitus Type 2		DIABETES		N							1																																																				1									
phs000100.v3.p1, The Finland-United States Investigation of NIDDM Genetics (FUSION) Study	MH	phs000100-T2D-001482	1				TYPE 2 DIABETES		Diabetes Mellitus Type 2		DIABETES		Y							1																																																				1									
phs000100.v3.p1, The Finland-United States Investigation of NIDDM Genetics (FUSION) Study	MH	phs000100-T2D-001483	1				TYPE 2 DIABETES		Diabetes Mellitus Type 2		DIABETES		N							1																																																				1									
phs000100.v3.p1, The Finland-United States Investigation of NIDDM Genetics (FUSION) Study	MH	phs000100-T2D-001484	1				TYPE 2 DIABETES		Diabetes Mellitus Type 2		DIABETES		Y							1																																																				1									
phs000100.v3.p1, The Finland-United States Investigation of NIDDM Genetics (FUSION) Study	MH	phs000100-T2D-001485	1				TYPE 2 DIABETES		Diabetes Mellitus Type 2		DIABETES		Y							1																																																				1									
phs000100.v3.p1, The Finland-United States Investigation of NIDDM Genetics (FUSION) Study	MH	phs000100-T2D-001486	1				TYPE 2 DIABETES		Diabetes Mellitus Type 2		DIABETES		N							1																																																				1									
phs000100.v3.p1, The Finland-United States Investigation of NIDDM Genetics (FUSION) Study	MH	phs000100-T2D-001487	1				TYPE 2 DIABETES		Diabetes Mellitus Type 2		DIABETES		Y							1																																																				1									
phs000100.v3.p1, The Finland-United States Investigation of NIDDM Genetics (FUSION) Study	MH	phs000100-T2D-001488	1				TYPE 2 DIABETES		Diabetes Mellitus Type 2		DIABETES		N							1																																																				1									
phs000100.v3.p1, The Finland-United States Investigation of NIDDM Genetics (FUSION) Study	MH	phs000100-T2D-001489	1				TYPE 2 DIABETES		Diabetes Mellitus Type 2		DIABETES		N							1																																																				1									
phs000100.v3.p1, The Finland-United States Investigation of NIDDM Genetics (FUSION) Study	MH	phs000100-T2D-001490	1				TYPE 2 DIABETES		Diabetes Mellitus Type 2		DIABETES		Y							1																																																				1									
phs000100.v3.p1, The Finland-United States Investigation of NIDDM Genetics (FUSION) Study	MH	phs000100-T2D-001491	1				TYPE 2 DIABETES		Diabetes Mellitus Type 2		DIABETES		Y							1																																																				1									
phs000100.v3.p1, The Finland-United States Investigation of NIDDM Genetics (FUSION) Study	MH	phs000100-T2D-001492	1				TYPE 2 DIABETES		Diabetes Mellitus Type 2		DIABETES		N							1																																																				1									
phs000100.v3.p1, The Finland-United States Investigation of NIDDM Genetics (FUSION) Study	MH	phs000100-T2D-001493	1				TYPE 2 DIABETES		Diabetes Mellitus Type 2		DIABETES		Y							1																																																				1									
phs000100.v3.p1, The Finland-United States Investigation of NIDDM Genetics (FUSION) Study	MH	phs000100-T2D-001494	1				TYPE 2 DIABETES		Diabetes Mellitus Type 2		DIABETES		Y							1																																																				1									
phs000100.v3.p1, The Finland-United States Investigation of NIDDM Genetics (FUSION) Study	MH	phs000100-T2D-001495	1				TYPE 2 DIABETES		Diabetes Mellitus Type 2		DIABETES		Y							1																																																				1									
phs000100.v3.p1, The Finland-United States Investigation of NIDDM Genetics (FUSION) Study	MH	phs000100-T2D-001496	1				TYPE 2 DIABETES		Diabetes Mellitus Type 2		DIABETES		Y							1																																																				1									
phs000100.v3.p1, The Finland-United States Investigation of NIDDM Genetics (FUSION) Study	MH	phs000100-T2D-001497	1				TYPE 2 DIABETES		Diabetes Mellitus Type 2		DIABETES		Y							1																																																				1									
phs000100.v3.p1, The Finland-United States Investigation of NIDDM Genetics (FUSION) Study	MH	phs000100-T2D-001498	1				TYPE 2 DIABETES		Diabetes Mellitus Type 2		DIABETES		Y							1																																																				1									
phs000100.v3.p1, The Finland-United States Investigation of NIDDM Genetics (FUSION) Study	MH	phs000100-T2D-001499	1				TYPE 2 DIABETES		Diabetes Mellitus Type 2		DIABETES		Y							1																																																				1									
phs000100.v3.p1, The Finland-United States Investigation of NIDDM Genetics (FUSION) Study	MH	phs000100-T2D-001500	1				TYPE 2 DIABETES		Diabetes Mellitus Type 2		DIABETES		N							1																																																				1									
phs000100.v3.p1, The Finland-United States Investigation of NIDDM Genetics (FUSION) Study	MH	phs000100-T2D-001501	1				TYPE 2 DIABETES		Diabetes Mellitus Type 2		DIABETES		N							1																																																				1									
phs000100.v3.p1, The Finland-United States Investigation of NIDDM Genetics (FUSION) Study	MH	phs000100-T2D-001502	1				TYPE 2 DIABETES		Diabetes Mellitus Type 2		DIABETES		Y							1																																																				1									
phs000100.v3.p1, The Finland-United States Investigation of NIDDM Genetics (FUSION) Study	MH	phs000100-T2D-001503	1				TYPE 2 DIABETES		Diabetes Mellitus Type 2		DIABETES		N							1																																																				1									
phs000100.v3.p1, The Finland-United States Investigation of NIDDM Genetics (FUSION) Study	MH	phs000100-T2D-001504	1				TYPE 2 DIABETES		Diabetes Mellitus Type 2		DIABETES		N							1																																																				1									
phs000100.v3.p1, The Finland-United States Investigation of NIDDM Genetics (FUSION) Study	MH	phs000100-T2D-001505	1				TYPE 2 DIABETES		Diabetes Mellitus Type 2		DIABETES		N							1																																																				1									
phs000100.v3.p1, The Finland-United States Investigation of NIDDM Genetics (FUSION) Study	MH	phs000100-T2D-001506	1				TYPE 2 DIABETES		Diabetes Mellitus Type 2		DIABETES		N							1																																																				1									
phs000100.v3.p1, The Finland-United States Investigation of NIDDM Genetics (FUSION) Study	MH	phs000100-T2D-001507	1				TYPE 2 DIABETES		Diabetes Mellitus Type 2		DIABETES		Y							1																																																				1									
phs000100.v3.p1, The Finland-United States Investigation of NIDDM Genetics (FUSION) Study	MH	phs000100-T2D-001508	1				TYPE 2 DIABETES		Diabetes Mellitus Type 2		DIABETES		Y							1																																																				1									
phs000100.v3.p1, The Finland-United States Investigation of NIDDM Genetics (FUSION) Study	MH	phs000100-T2D-001509	1				TYPE 2 DIABETES		Diabetes Mellitus Type 2		DIABETES		Y							1																																																				1									
phs000100.v3.p1, The Finland-United States Investigation of NIDDM Genetics (FUSION) Study	MH	phs000100-T2D-001510	1				TYPE 2 DIABETES		Diabetes Mellitus Type 2		DIABETES		N							1																																																				1									
phs000100.v3.p1, The Finland-United States Investigation of NIDDM Genetics (FUSION) Study	MH	phs000100-T2D-001511	1				TYPE 2 DIABETES		Diabetes Mellitus Type 2		DIABETES		N							1																																																				1									
phs000100.v3.p1, The Finland-United States Investigation of NIDDM Genetics (FUSION) Study	MH	phs000100-T2D-001512	1				TYPE 2 DIABETES		Diabetes Mellitus Type 2		DIABETES		N							1																																																				1									
phs000100.v3.p1, The Finland-United States Investigation of NIDDM Genetics (FUSION) Study	MH	phs000100-T2D-001513	1				TYPE 2 DIABETES		Diabetes Mellitus Type 2		DIABETES		Y							1																																																				1									
phs000100.v3.p1, The Finland-United States Investigation of NIDDM Genetics (FUSION) Study	MH	phs000100-T2D-001514	1				TYPE 2 DIABETES		Diabetes Mellitus Type 2		DIABETES		N							1																																																				1									
phs000100.v3.p1, The Finland-United States Investigation of NIDDM Genetics (FUSION) Study	MH	phs000100-T2D-001515	1				TYPE 2 DIABETES		Diabetes Mellitus Type 2		DIABETES		N							1																																																				1									
phs000100.v3.p1, The Finland-United States Investigation of NIDDM Genetics (FUSION) Study	MH	phs000100-T2D-001516	1				TYPE 2 DIABETES		Diabetes Mellitus Type 2		DIABETES		Y							1																																																				1									
phs000100.v3.p1, The Finland-United States Investigation of NIDDM Genetics (FUSION) Study	MH	phs000100-T2D-001517	1				TYPE 2 DIABETES		Diabetes Mellitus Type 2		DIABETES		Y							1																																																				1									
phs000100.v3.p1, The Finland-United States Investigation of NIDDM Genetics (FUSION) Study	MH	phs000100-T2D-001518	1				TYPE 2 DIABETES		Diabetes Mellitus Type 2		DIABETES		Y							1																																																				1									
phs000100.v3.p1, The Finland-United States Investigation of NIDDM Genetics (FUSION) Study	MH	phs000100-T2D-001519	1				TYPE 2 DIABETES		Diabetes Mellitus Type 2		DIABETES		N							1																																																				1									
phs000100.v3.p1, The Finland-United States Investigation of NIDDM Genetics (FUSION) Study	MH	phs000100-T2D-001520	1				TYPE 2 DIABETES		Diabetes Mellitus Type 2		DIABETES		N							1																																																				1									
phs000100.v3.p1, The Finland-United States Investigation of NIDDM Genetics (FUSION) Study	MH	phs000100-T2D-001521	1				TYPE 2 DIABETES		Diabetes Mellitus Type 2		DIABETES		N							1																																																				1									
phs000100.v3.p1, The Finland-United States Investigation of NIDDM Genetics (FUSION) Study	MH	phs000100-T2D-001522	1				TYPE 2 DIABETES		Diabetes Mellitus Type 2		DIABETES		N							1																																																				1									
phs000100.v3.p1, The Finland-United States Investigation of NIDDM Genetics (FUSION) Study	MH	phs000100-T2D-001523	1				TYPE 2 DIABETES		Diabetes Mellitus Type 2		DIABETES		Y							1																																																				1									
phs000100.v3.p1, The Finland-United States Investigation of NIDDM Genetics (FUSION) Study	MH	phs000100-T2D-001524	1				TYPE 2 DIABETES		Diabetes Mellitus Type 2		DIABETES		N							1																																																				1									
phs000100.v3.p1, The Finland-United States Investigation of NIDDM Genetics (FUSION) Study	MH	phs000100-T2D-001525	1				TYPE 2 DIABETES		Diabetes Mellitus Type 2		DIABETES		N							1																																																				1									
phs000100.v3.p1, The Finland-United States Investigation of NIDDM Genetics (FUSION) Study	MH	phs000100-T2D-001526	1				TYPE 2 DIABETES		Diabetes Mellitus Type 2		DIABETES		N							1																																																				1									
phs000100.v3.p1, The Finland-United States Investigation of NIDDM Genetics (FUSION) Study	MH	phs000100-T2D-001527	1				TYPE 2 DIABETES		Diabetes Mellitus Type 2		DIABETES		N							1																																																				1									
phs000100.v3.p1, The Finland-United States Investigation of NIDDM Genetics (FUSION) Study	MH	phs000100-T2D-001528	1				TYPE 2 DIABETES		Diabetes Mellitus Type 2		DIABETES		N							1																																																				1									
phs000100.v3.p1, The Finland-United States Investigation of NIDDM Genetics (FUSION) Study	MH	phs000100-T2D-001529	1				TYPE 2 DIABETES		Diabetes Mellitus Type 2		DIABETES		N							1																																																				1									
phs000100.v3.p1, The Finland-United States Investigation of NIDDM Genetics (FUSION) Study	MH	phs000100-T2D-001530	1				TYPE 2 DIABETES		Diabetes Mellitus Type 2		DIABETES		N							1																																																				1									
phs000100.v3.p1, The Finland-United States Investigation of NIDDM Genetics (FUSION) Study	MH	phs000100-T2D-001531	1				TYPE 2 DIABETES		Diabetes Mellitus Type 2		DIABETES		N							1																																																				1									
phs000100.v3.p1, The Finland-United States Investigation of NIDDM Genetics (FUSION) Study	MH	phs000100-T2D-001532	1				TYPE 2 DIABETES		Diabetes Mellitus Type 2		DIABETES		Y							1																																																				1									
phs000100.v3.p1, The Finland-United States Investigation of NIDDM Genetics (FUSION) Study	MH	phs000100-T2D-001533	1				TYPE 2 DIABETES		Diabetes Mellitus Type 2		DIABETES		N							1																																																				1									
phs000100.v3.p1, The Finland-United States Investigation of NIDDM Genetics (FUSION) Study	MH	phs000100-T2D-001534	1				TYPE 2 DIABETES		Diabetes Mellitus Type 2		DIABETES		N							1																																																				1									
phs000100.v3.p1, The Finland-United States Investigation of NIDDM Genetics (FUSION) Study	MH	phs000100-T2D-001535	1				TYPE 2 DIABETES		Diabetes Mellitus Type 2		DIABETES		N							1																																																				1									
phs000100.v3.p1, The Finland-United States Investigation of NIDDM Genetics (FUSION) Study	MH	phs000100-T2D-001536	1				TYPE 2 DIABETES		Diabetes Mellitus Type 2		DIABETES		Y							1																																																				1									
phs000100.v3.p1, The Finland-United States Investigation of NIDDM Genetics (FUSION) Study	MH	phs000100-T2D-001537	1				TYPE 2 DIABETES		Diabetes Mellitus Type 2		DIABETES		Y							1																																																				1									
phs000100.v3.p1, The Finland-United States Investigation of NIDDM Genetics (FUSION) Study	MH	phs000100-T2D-001538	1				TYPE 2 DIABETES		Diabetes Mellitus Type 2		DIABETES		N							1																																																				1									
phs000100.v3.p1, The Finland-United States Investigation of NIDDM Genetics (FUSION) Study	MH	phs000100-T2D-001539	1				TYPE 2 DIABETES		Diabetes Mellitus Type 2		DIABETES		Y							1																																																				1									
phs000100.v3.p1, The Finland-United States Investigation of NIDDM Genetics (FUSION) Study	MH	phs000100-T2D-001540	1				TYPE 2 DIABETES		Diabetes Mellitus Type 2		DIABETES		Y							1																																																				1									
phs000100.v3.p1, The Finland-United States Investigation of NIDDM Genetics (FUSION) Study	MH	phs000100-T2D-001541	1				TYPE 2 DIABETES		Diabetes Mellitus Type 2		DIABETES		N							1																																																				1									
phs000100.v3.p1, The Finland-United States Investigation of NIDDM Genetics (FUSION) Study	MH	phs000100-T2D-001542	1				TYPE 2 DIABETES		Diabetes Mellitus Type 2		DIABETES		Y							1																																																				1									
phs000100.v3.p1, The Finland-United States Investigation of NIDDM Genetics (FUSION) Study	MH	phs000100-T2D-001543	1				TYPE 2 DIABETES		Diabetes Mellitus Type 2		DIABETES		Y							1																																																				1									
phs000100.v3.p1, The Finland-United States Investigation of NIDDM Genetics (FUSION) Study	MH	phs000100-T2D-001544	1				TYPE 2 DIABETES		Diabetes Mellitus Type 2		DIABETES		Y							1																																																				1									
phs000100.v3.p1, The Finland-United States Investigation of NIDDM Genetics (FUSION) Study	MH	phs000100-T2D-001545	1				TYPE 2 DIABETES		Diabetes Mellitus Type 2		DIABETES		Y							1																																																				1									
phs000100.v3.p1, The Finland-United States Investigation of NIDDM Genetics (FUSION) Study	MH	phs000100-T2D-001546	1				TYPE 2 DIABETES		Diabetes Mellitus Type 2		DIABETES		Y							1																																																				1									
phs000100.v3.p1, The Finland-United States Investigation of NIDDM Genetics (FUSION) Study	MH	phs000100-T2D-001547	1				TYPE 2 DIABETES		Diabetes Mellitus Type 2		DIABETES		Y							1																																																				1									
phs000100.v3.p1, The Finland-United States Investigation of NIDDM Genetics (FUSION) Study	MH	phs000100-T2D-001548	1				TYPE 2 DIABETES		Diabetes Mellitus Type 2		DIABETES		Y							1																																																				1									
phs000100.v3.p1, The Finland-United States Investigation of NIDDM Genetics (FUSION) Study	MH	phs000100-T2D-001549	1				TYPE 2 DIABETES		Diabetes Mellitus Type 2		DIABETES		Y							1																																																				1									
phs000100.v3.p1, The Finland-United States Investigation of NIDDM Genetics (FUSION) Study	MH	phs000100-T2D-001550	1				TYPE 2 DIABETES		Diabetes Mellitus Type 2		DIABETES		N							1																																																				1									
phs000100.v3.p1, The Finland-United States Investigation of NIDDM Genetics (FUSION) Study	MH	phs000100-T2D-001551	1				TYPE 2 DIABETES		Diabetes Mellitus Type 2		DIABETES		Y							1																																																				1									
phs000100.v3.p1, The Finland-United States Investigation of NIDDM Genetics (FUSION) Study	MH	phs000100-T2D-001552	1				TYPE 2 DIABETES		Diabetes Mellitus Type 2		DIABETES		N							1																																																				1									
phs000100.v3.p1, The Finland-United States Investigation of NIDDM Genetics (FUSION) Study	MH	phs000100-T2D-001553	1				TYPE 2 DIABETES		Diabetes Mellitus Type 2		DIABETES		Y							1																																																				1									
phs000100.v3.p1, The Finland-United States Investigation of NIDDM Genetics (FUSION) Study	MH	phs000100-T2D-001554	1				TYPE 2 DIABETES		Diabetes Mellitus Type 2		DIABETES		Y							1																																																				1									
phs000100.v3.p1, The Finland-United States Investigation of NIDDM Genetics (FUSION) Study	MH	phs000100-T2D-001555	1				TYPE 2 DIABETES		Diabetes Mellitus Type 2		DIABETES		N							1																																																				1									
phs000100.v3.p1, The Finland-United States Investigation of NIDDM Genetics (FUSION) Study	MH	phs000100-T2D-001556	1				TYPE 2 DIABETES		Diabetes Mellitus Type 2		DIABETES		Y							1																																																				1									
phs000100.v3.p1, The Finland-United States Investigation of NIDDM Genetics (FUSION) Study	MH	phs000100-T2D-001557	1				TYPE 2 DIABETES		Diabetes Mellitus Type 2		DIABETES		Y							1																																																				1									
phs000100.v3.p1, The Finland-United States Investigation of NIDDM Genetics (FUSION) Study	MH	phs000100-T2D-001558	1				TYPE 2 DIABETES		Diabetes Mellitus Type 2		DIABETES		Y							1																																																				1									
phs000100.v3.p1, The Finland-United States Investigation of NIDDM Genetics (FUSION) Study	MH	phs000100-T2D-001559	1				TYPE 2 DIABETES		Diabetes Mellitus Type 2		DIABETES		Y							1																																																				1									
phs000100.v3.p1, The Finland-United States Investigation of NIDDM Genetics (FUSION) Study	MH	phs000100-T2D-001560	1				TYPE 2 DIABETES		Diabetes Mellitus Type 2		DIABETES		Y							1																																																				1									
phs000100.v3.p1, The Finland-United States Investigation of NIDDM Genetics (FUSION) Study	MH	phs000100-T2D-001561	1				TYPE 2 DIABETES		Diabetes Mellitus Type 2		DIABETES		Y							1																																																				1									
phs000100.v3.p1, The Finland-United States Investigation of NIDDM Genetics (FUSION) Study	MH	phs000100-T2D-001562	1				TYPE 2 DIABETES		Diabetes Mellitus Type 2		DIABETES		Y							1																																																				1									
phs000100.v3.p1, The Finland-United States Investigation of NIDDM Genetics (FUSION) Study	MH	phs000100-T2D-001563	1				TYPE 2 DIABETES		Diabetes Mellitus Type 2		DIABETES		N							1																																																				1									
phs000100.v3.p1, The Finland-United States Investigation of NIDDM Genetics (FUSION) Study	MH	phs000100-T2D-001564	1				TYPE 2 DIABETES		Diabetes Mellitus Type 2		DIABETES		Y							1																																																				1									
phs000100.v3.p1, The Finland-United States Investigation of NIDDM Genetics (FUSION) Study	MH	phs000100-T2D-001565	1				TYPE 2 DIABETES		Diabetes Mellitus Type 2		DIABETES		Y							1																																																				1									
phs000100.v3.p1, The Finland-United States Investigation of NIDDM Genetics (FUSION) Study	MH	phs000100-T2D-001566	1				TYPE 2 DIABETES		Diabetes Mellitus Type 2		DIABETES		N							1																																																				1									
phs000100.v3.p1, The Finland-United States Investigation of NIDDM Genetics (FUSION) Study	MH	phs000100-T2D-001567	1				TYPE 2 DIABETES		Diabetes Mellitus Type 2		DIABETES		Y							1																																																				1									
phs000100.v3.p1, The Finland-United States Investigation of NIDDM Genetics (FUSION) Study	MH	phs000100-T2D-001568	1				TYPE 2 DIABETES		Diabetes Mellitus Type 2		DIABETES		Y							1																																																				1									
phs000100.v3.p1, The Finland-United States Investigation of NIDDM Genetics (FUSION) Study	MH	phs000100-T2D-001569	1				TYPE 2 DIABETES		Diabetes Mellitus Type 2		DIABETES		Y							1																																																				1									
phs000100.v3.p1, The Finland-United States Investigation of NIDDM Genetics (FUSION) Study	MH	phs000100-T2D-001570	1				TYPE 2 DIABETES		Diabetes Mellitus Type 2		DIABETES		N							1																																																				1									
phs000100.v3.p1, The Finland-United States Investigation of NIDDM Genetics (FUSION) Study	MH	phs000100-T2D-001571	1				TYPE 2 DIABETES		Diabetes Mellitus Type 2		DIABETES		Y							1																																																				1									
phs000100.v3.p1, The Finland-United States Investigation of NIDDM Genetics (FUSION) Study	MH	phs000100-T2D-001572	1				TYPE 2 DIABETES		Diabetes Mellitus Type 2		DIABETES		Y							1																																																				1									
phs000100.v3.p1, The Finland-United States Investigation of NIDDM Genetics (FUSION) Study	MH	phs000100-T2D-001573	1				TYPE 2 DIABETES		Diabetes Mellitus Type 2		DIABETES		Y							1																																																				1									
phs000100.v3.p1, The Finland-United States Investigation of NIDDM Genetics (FUSION) Study	MH	phs000100-T2D-001574	1				TYPE 2 DIABETES		Diabetes Mellitus Type 2		DIABETES		Y							1																																																				1									
phs000100.v3.p1, The Finland-United States Investigation of NIDDM Genetics (FUSION) Study	MH	phs000100-T2D-001575	1				TYPE 2 DIABETES		Diabetes Mellitus Type 2		DIABETES		Y							1																																																				1									
phs000100.v3.p1, The Finland-United States Investigation of NIDDM Genetics (FUSION) Study	MH	phs000100-T2D-001576	1				TYPE 2 DIABETES		Diabetes Mellitus Type 2		DIABETES		Y							1																																																				1									
phs000100.v3.p1, The Finland-United States Investigation of NIDDM Genetics (FUSION) Study	MH	phs000100-T2D-001577	1				TYPE 2 DIABETES		Diabetes Mellitus Type 2		DIABETES		Y							1																																																				1									
phs000100.v3.p1, The Finland-United States Investigation of NIDDM Genetics (FUSION) Study	MH	phs000100-T2D-001578	1				TYPE 2 DIABETES		Diabetes Mellitus Type 2		DIABETES		N							1																																																				1									
phs000100.v3.p1, The Finland-United States Investigation of NIDDM Genetics (FUSION) Study	MH	phs000100-T2D-001579	1				TYPE 2 DIABETES		Diabetes Mellitus Type 2		DIABETES		Y							1																																																				1									
phs000100.v3.p1, The Finland-United States Investigation of NIDDM Genetics (FUSION) Study	MH	phs000100-T2D-001580	1				TYPE 2 DIABETES		Diabetes Mellitus Type 2		DIABETES		N							1																																																				1									
phs000100.v3.p1, The Finland-United States Investigation of NIDDM Genetics (FUSION) Study	MH	phs000100-T2D-001581	1				TYPE 2 DIABETES		Diabetes Mellitus Type 2		DIABETES		N							1																																																				1									
phs000100.v3.p1, The Finland-United States Investigation of NIDDM Genetics (FUSION) Study	MH	phs000100-T2D-001582	1				TYPE 2 DIABETES		Diabetes Mellitus Type 2		DIABETES		Y							1																																																				1									
phs000100.v3.p1, The Finland-United States Investigation of NIDDM Genetics (FUSION) Study	MH	phs000100-T2D-001583	1				TYPE 2 DIABETES		Diabetes Mellitus Type 2		DIABETES		Y							1																																																				1									
phs000100.v3.p1, The Finland-United States Investigation of NIDDM Genetics (FUSION) Study	MH	phs000100-T2D-001584	1				TYPE 2 DIABETES		Diabetes Mellitus Type 2		DIABETES		Y							1																																																				1									
phs000100.v3.p1, The Finland-United States Investigation of NIDDM Genetics (FUSION) Study	MH	phs000100-T2D-001585	1				TYPE 2 DIABETES		Diabetes Mellitus Type 2		DIABETES		Y							1																																																				1									
phs000100.v3.p1, The Finland-United States Investigation of NIDDM Genetics (FUSION) Study	MH	phs000100-T2D-001586	1				TYPE 2 DIABETES		Diabetes Mellitus Type 2		DIABETES		Y							1																																																				1									
phs000100.v3.p1, The Finland-United States Investigation of NIDDM Genetics (FUSION) Study	MH	phs000100-T2D-001587	1				TYPE 2 DIABETES		Diabetes Mellitus Type 2		DIABETES		N							1																																																				1									
phs000100.v3.p1, The Finland-United States Investigation of NIDDM Genetics (FUSION) Study	MH	phs000100-T2D-001588	1				TYPE 2 DIABETES		Diabetes Mellitus Type 2		DIABETES		Y							1																																																				1									
phs000100.v3.p1, The Finland-United States Investigation of NIDDM Genetics (FUSION) Study	MH	phs000100-T2D-001589	1				TYPE 2 DIABETES		Diabetes Mellitus Type 2		DIABETES		Y							1																																																				1									
phs000100.v3.p1, The Finland-United States Investigation of NIDDM Genetics (FUSION) Study	MH	phs000100-T2D-001590	1				TYPE 2 DIABETES		Diabetes Mellitus Type 2		DIABETES		Y							1																																																				1									
phs000100.v3.p1, The Finland-United States Investigation of NIDDM Genetics (FUSION) Study	MH	phs000100-T2D-001591	1				TYPE 2 DIABETES		Diabetes Mellitus Type 2		DIABETES		N							1																																																				1									
phs000100.v3.p1, The Finland-United States Investigation of NIDDM Genetics (FUSION) Study	MH	phs000100-T2D-001592	1				TYPE 2 DIABETES		Diabetes Mellitus Type 2		DIABETES		N							1																																																				1									
phs000100.v3.p1, The Finland-United States Investigation of NIDDM Genetics (FUSION) Study	MH	phs000100-T2D-001593	1				TYPE 2 DIABETES		Diabetes Mellitus Type 2		DIABETES		Y							1																																																				1									
phs000100.v3.p1, The Finland-United States Investigation of NIDDM Genetics (FUSION) Study	MH	phs000100-T2D-001594	1				TYPE 2 DIABETES		Diabetes Mellitus Type 2		DIABETES		N							1																																																				1									
phs000100.v3.p1, The Finland-United States Investigation of NIDDM Genetics (FUSION) Study	MH	phs000100-T2D-001595	1				TYPE 2 DIABETES		Diabetes Mellitus Type 2		DIABETES		Y							1																																																				1									
phs000100.v3.p1, The Finland-United States Investigation of NIDDM Genetics (FUSION) Study	MH	phs000100-T2D-001596	1				TYPE 2 DIABETES		Diabetes Mellitus Type 2		DIABETES		Y							1																																																				1									
phs000100.v3.p1, The Finland-United States Investigation of NIDDM Genetics (FUSION) Study	MH	phs000100-T2D-001597	1				TYPE 2 DIABETES		Diabetes Mellitus Type 2		DIABETES		Y							1																																																				1									
phs000100.v3.p1, The Finland-United States Investigation of NIDDM Genetics (FUSION) Study	MH	phs000100-T2D-001598	1				TYPE 2 DIABETES		Diabetes Mellitus Type 2		DIABETES		Y							1																																																				1									
phs000100.v3.p1, The Finland-United States Investigation of NIDDM Genetics (FUSION) Study	MH	phs000100-T2D-001599	1				TYPE 2 DIABETES		Diabetes Mellitus Type 2		DIABETES		Y							1																																																				1									
phs000100.v3.p1, The Finland-United States Investigation of NIDDM Genetics (FUSION) Study	MH	phs000100-T2D-001600	1				TYPE 2 DIABETES		Diabetes Mellitus Type 2		DIABETES		N							1																																																				1									
phs000100.v3.p1, The Finland-United States Investigation of NIDDM Genetics (FUSION) Study	MH	phs000100-T2D-001601	1				TYPE 2 DIABETES		Diabetes Mellitus Type 2		DIABETES		Y							1																																																				1									
phs000100.v3.p1, The Finland-United States Investigation of NIDDM Genetics (FUSION) Study	MH	phs000100-T2D-001602	1				TYPE 2 DIABETES		Diabetes Mellitus Type 2		DIABETES		N							1																																																				1									
phs000100.v3.p1, The Finland-United States Investigation of NIDDM Genetics (FUSION) Study	MH	phs000100-T2D-001603	1				TYPE 2 DIABETES		Diabetes Mellitus Type 2		DIABETES		N							1																																																				1									
phs000100.v3.p1, The Finland-United States Investigation of NIDDM Genetics (FUSION) Study	MH	phs000100-T2D-001604	1				TYPE 2 DIABETES		Diabetes Mellitus Type 2		DIABETES		Y							1																																																				1									
phs000100.v3.p1, The Finland-United States Investigation of NIDDM Genetics (FUSION) Study	MH	phs000100-T2D-001605	1				TYPE 2 DIABETES		Diabetes Mellitus Type 2		DIABETES		N							1																																																				1									
phs000100.v3.p1, The Finland-United States Investigation of NIDDM Genetics (FUSION) Study	MH	phs000100-T2D-001606	1				TYPE 2 DIABETES		Diabetes Mellitus Type 2		DIABETES		N							1																																																				1									
phs000100.v3.p1, The Finland-United States Investigation of NIDDM Genetics (FUSION) Study	MH	phs000100-T2D-001607	1				TYPE 2 DIABETES		Diabetes Mellitus Type 2		DIABETES		Y							1																																																				1									
phs000100.v3.p1, The Finland-United States Investigation of NIDDM Genetics (FUSION) Study	MH	phs000100-T2D-001608	1				TYPE 2 DIABETES		Diabetes Mellitus Type 2		DIABETES		N							1																																																				1									
phs000100.v3.p1, The Finland-United States Investigation of NIDDM Genetics (FUSION) Study	MH	phs000100-T2D-001609	1				TYPE 2 DIABETES		Diabetes Mellitus Type 2		DIABETES		N							1																																																				1									
phs000100.v3.p1, The Finland-United States Investigation of NIDDM Genetics (FUSION) Study	MH	phs000100-T2D-001610	1				TYPE 2 DIABETES		Diabetes Mellitus Type 2		DIABETES		Y							1																																																				1									
phs000100.v3.p1, The Finland-United States Investigation of NIDDM Genetics (FUSION) Study	MH	phs000100-T2D-001611	1				TYPE 2 DIABETES		Diabetes Mellitus Type 2		DIABETES		Y							1																																																				1									
phs000100.v3.p1, The Finland-United States Investigation of NIDDM Genetics (FUSION) Study	MH	phs000100-T2D-001612	1				TYPE 2 DIABETES		Diabetes Mellitus Type 2		DIABETES		Y							1																																																				1									
phs000100.v3.p1, The Finland-United States Investigation of NIDDM Genetics (FUSION) Study	MH	phs000100-T2D-001613	1				TYPE 2 DIABETES		Diabetes Mellitus Type 2		DIABETES		Y							1																																																				1									
phs000100.v3.p1, The Finland-United States Investigation of NIDDM Genetics (FUSION) Study	MH	phs000100-T2D-001614	1				TYPE 2 DIABETES		Diabetes Mellitus Type 2		DIABETES		N							1																																																				1									
phs000100.v3.p1, The Finland-United States Investigation of NIDDM Genetics (FUSION) Study	MH	phs000100-T2D-001615	1				TYPE 2 DIABETES		Diabetes Mellitus Type 2		DIABETES		N							1																																																				1									
phs000100.v3.p1, The Finland-United States Investigation of NIDDM Genetics (FUSION) Study	MH	phs000100-T2D-001616	1				TYPE 2 DIABETES		Diabetes Mellitus Type 2		DIABETES		Y							1																																																				1									
phs000100.v3.p1, The Finland-United States Investigation of NIDDM Genetics (FUSION) Study	MH	phs000100-T2D-001617	1				TYPE 2 DIABETES		Diabetes Mellitus Type 2		DIABETES		N							1																																																				1									
phs000100.v3.p1, The Finland-United States Investigation of NIDDM Genetics (FUSION) Study	MH	phs000100-T2D-001618	1				TYPE 2 DIABETES		Diabetes Mellitus Type 2		DIABETES		Y							1																																																				1									
phs000100.v3.p1, The Finland-United States Investigation of NIDDM Genetics (FUSION) Study	MH	phs000100-T2D-001619	1				TYPE 2 DIABETES		Diabetes Mellitus Type 2		DIABETES		N							1																																																				1									
phs000100.v3.p1, The Finland-United States Investigation of NIDDM Genetics (FUSION) Study	MH	phs000100-T2D-001620	1				TYPE 2 DIABETES		Diabetes Mellitus Type 2		DIABETES		Y							1																																																				1									
phs000100.v3.p1, The Finland-United States Investigation of NIDDM Genetics (FUSION) Study	MH	phs000100-T2D-001621	1				TYPE 2 DIABETES		Diabetes Mellitus Type 2		DIABETES		Y							1																																																				1									
phs000100.v3.p1, The Finland-United States Investigation of NIDDM Genetics (FUSION) Study	MH	phs000100-T2D-001622	1				TYPE 2 DIABETES		Diabetes Mellitus Type 2		DIABETES		Y							1																																																				1									
phs000100.v3.p1, The Finland-United States Investigation of NIDDM Genetics (FUSION) Study	MH	phs000100-T2D-001623	1				TYPE 2 DIABETES		Diabetes Mellitus Type 2		DIABETES		N							1																																																				1									
phs000100.v3.p1, The Finland-United States Investigation of NIDDM Genetics (FUSION) Study	MH	phs000100-T2D-001624	1				TYPE 2 DIABETES		Diabetes Mellitus Type 2		DIABETES		Y							1																																																				1									
phs000100.v3.p1, The Finland-United States Investigation of NIDDM Genetics (FUSION) Study	MH	phs000100-T2D-001625	1				TYPE 2 DIABETES		Diabetes Mellitus Type 2		DIABETES		Y							1																																																				1									
phs000100.v3.p1, The Finland-United States Investigation of NIDDM Genetics (FUSION) Study	MH	phs000100-T2D-001626	1				TYPE 2 DIABETES		Diabetes Mellitus Type 2		DIABETES		N							1																																																				1									
phs000100.v3.p1, The Finland-United States Investigation of NIDDM Genetics (FUSION) Study	MH	phs000100-T2D-001627	1				TYPE 2 DIABETES		Diabetes Mellitus Type 2		DIABETES		N							1																																																				1									
phs000100.v3.p1, The Finland-United States Investigation of NIDDM Genetics (FUSION) Study	MH	phs000100-T2D-001628	1				TYPE 2 DIABETES		Diabetes Mellitus Type 2		DIABETES		Y							1																																																				1									
phs000100.v3.p1, The Finland-United States Investigation of NIDDM Genetics (FUSION) Study	MH	phs000100-T2D-001629	1				TYPE 2 DIABETES		Diabetes Mellitus Type 2		DIABETES		Y							1																																																				1									
phs000100.v3.p1, The Finland-United States Investigation of NIDDM Genetics (FUSION) Study	MH	phs000100-T2D-001630	1				TYPE 2 DIABETES		Diabetes Mellitus Type 2		DIABETES		N							1																																																				1									
phs000100.v3.p1, The Finland-United States Investigation of NIDDM Genetics (FUSION) Study	MH	phs000100-T2D-001631	1				TYPE 2 DIABETES		Diabetes Mellitus Type 2		DIABETES		Y							1																																																				1									
phs000100.v3.p1, The Finland-United States Investigation of NIDDM Genetics (FUSION) Study	MH	phs000100-T2D-001632	1				TYPE 2 DIABETES		Diabetes Mellitus Type 2		DIABETES		Y							1																																																				1									
phs000100.v3.p1, The Finland-United States Investigation of NIDDM Genetics (FUSION) Study	MH	phs000100-T2D-001633	1				TYPE 2 DIABETES		Diabetes Mellitus Type 2		DIABETES		Y							1																																																				1									
phs000100.v3.p1, The Finland-United States Investigation of NIDDM Genetics (FUSION) Study	MH	phs000100-T2D-001634	1				TYPE 2 DIABETES		Diabetes Mellitus Type 2		DIABETES		Y							1																																																				1									
phs000100.v3.p1, The Finland-United States Investigation of NIDDM Genetics (FUSION) Study	MH	phs000100-T2D-001635	1				TYPE 2 DIABETES		Diabetes Mellitus Type 2		DIABETES		Y							1																																																				1									
phs000100.v3.p1, The Finland-United States Investigation of NIDDM Genetics (FUSION) Study	MH	phs000100-T2D-001636	1				TYPE 2 DIABETES		Diabetes Mellitus Type 2		DIABETES		N							1																																																				1									
phs000100.v3.p1, The Finland-United States Investigation of NIDDM Genetics (FUSION) Study	MH	phs000100-T2D-001637	1				TYPE 2 DIABETES		Diabetes Mellitus Type 2		DIABETES		N							1																																																				1									
phs000100.v3.p1, The Finland-United States Investigation of NIDDM Genetics (FUSION) Study	MH	phs000100-T2D-001638	1				TYPE 2 DIABETES		Diabetes Mellitus Type 2		DIABETES		Y							1																																																				1									
phs000100.v3.p1, The Finland-United States Investigation of NIDDM Genetics (FUSION) Study	MH	phs000100-T2D-001639	1				TYPE 2 DIABETES		Diabetes Mellitus Type 2		DIABETES		Y							1																																																				1									
phs000100.v3.p1, The Finland-United States Investigation of NIDDM Genetics (FUSION) Study	MH	phs000100-T2D-001640	1				TYPE 2 DIABETES		Diabetes Mellitus Type 2		DIABETES		Y							1																																																				1									
phs000100.v3.p1, The Finland-United States Investigation of NIDDM Genetics (FUSION) Study	MH	phs000100-T2D-001641	1				TYPE 2 DIABETES		Diabetes Mellitus Type 2		DIABETES		Y							1																																																				1									
phs000100.v3.p1, The Finland-United States Investigation of NIDDM Genetics (FUSION) Study	MH	phs000100-T2D-001642	1				TYPE 2 DIABETES		Diabetes Mellitus Type 2		DIABETES		N							1																																																				1									
phs000100.v3.p1, The Finland-United States Investigation of NIDDM Genetics (FUSION) Study	MH	phs000100-T2D-001643	1				TYPE 2 DIABETES		Diabetes Mellitus Type 2		DIABETES		N							1																																																				1									
phs000100.v3.p1, The Finland-United States Investigation of NIDDM Genetics (FUSION) Study	MH	phs000100-T2D-001644	1				TYPE 2 DIABETES		Diabetes Mellitus Type 2		DIABETES		Y							1																																																				1									
phs000100.v3.p1, The Finland-United States Investigation of NIDDM Genetics (FUSION) Study	MH	phs000100-T2D-001645	1				TYPE 2 DIABETES		Diabetes Mellitus Type 2		DIABETES		Y							1																																																				1									
phs000100.v3.p1, The Finland-United States Investigation of NIDDM Genetics (FUSION) Study	MH	phs000100-T2D-001646	1				TYPE 2 DIABETES		Diabetes Mellitus Type 2		DIABETES		N							1																																																				1									
phs000100.v3.p1, The Finland-United States Investigation of NIDDM Genetics (FUSION) Study	MH	phs000100-T2D-001647	1				TYPE 2 DIABETES		Diabetes Mellitus Type 2		DIABETES		Y							1																																																				1									
phs000100.v3.p1, The Finland-United States Investigation of NIDDM Genetics (FUSION) Study	MH	phs000100-T2D-001648	1				TYPE 2 DIABETES		Diabetes Mellitus Type 2		DIABETES		Y							1																																																				1									
phs000100.v3.p1, The Finland-United States Investigation of NIDDM Genetics (FUSION) Study	MH	phs000100-T2D-001649	1				TYPE 2 DIABETES		Diabetes Mellitus Type 2		DIABETES		N							1																																																				1									
phs000100.v3.p1, The Finland-United States Investigation of NIDDM Genetics (FUSION) Study	MH	phs000100-T2D-001650	1				TYPE 2 DIABETES		Diabetes Mellitus Type 2		DIABETES		Y							1																																																				1									
phs000100.v3.p1, The Finland-United States Investigation of NIDDM Genetics (FUSION) Study	MH	phs000100-T2D-001651	1				TYPE 2 DIABETES		Diabetes Mellitus Type 2		DIABETES		Y							1																																																				1									
phs000100.v3.p1, The Finland-United States Investigation of NIDDM Genetics (FUSION) Study	MH	phs000100-T2D-001652	1				TYPE 2 DIABETES		Diabetes Mellitus Type 2		DIABETES		N							1																																																				1									
phs000100.v3.p1, The Finland-United States Investigation of NIDDM Genetics (FUSION) Study	MH	phs000100-T2D-001653	1				TYPE 2 DIABETES		Diabetes Mellitus Type 2		DIABETES		N							1																																																				1									
phs000100.v3.p1, The Finland-United States Investigation of NIDDM Genetics (FUSION) Study	MH	phs000100-T2D-001654	1				TYPE 2 DIABETES		Diabetes Mellitus Type 2		DIABETES		N							1																																																				1									
phs000100.v3.p1, The Finland-United States Investigation of NIDDM Genetics (FUSION) Study	MH	phs000100-T2D-001655	1				TYPE 2 DIABETES		Diabetes Mellitus Type 2		DIABETES		Y							1																																																				1									
phs000100.v3.p1, The Finland-United States Investigation of NIDDM Genetics (FUSION) Study	MH	phs000100-T2D-001656	1				TYPE 2 DIABETES		Diabetes Mellitus Type 2		DIABETES		N							1																																																				1									
phs000100.v3.p1, The Finland-United States Investigation of NIDDM Genetics (FUSION) Study	MH	phs000100-T2D-001657	1				TYPE 2 DIABETES		Diabetes Mellitus Type 2		DIABETES		N							1																																																				1									
phs000100.v3.p1, The Finland-United States Investigation of NIDDM Genetics (FUSION) Study	MH	phs000100-T2D-001658	1				TYPE 2 DIABETES		Diabetes Mellitus Type 2		DIABETES		N							1																																																				1									
phs000100.v3.p1, The Finland-United States Investigation of NIDDM Genetics (FUSION) Study	MH	phs000100-T2D-001659	1				TYPE 2 DIABETES		Diabetes Mellitus Type 2		DIABETES		N							1																																																				1									
phs000100.v3.p1, The Finland-United States Investigation of NIDDM Genetics (FUSION) Study	MH	phs000100-T2D-001660	1				TYPE 2 DIABETES		Diabetes Mellitus Type 2		DIABETES		Y							1																																																				1									
phs000100.v3.p1, The Finland-United States Investigation of NIDDM Genetics (FUSION) Study	MH	phs000100-T2D-001661	1				TYPE 2 DIABETES		Diabetes Mellitus Type 2		DIABETES		Y							1																																																				1									
phs000100.v3.p1, The Finland-United States Investigation of NIDDM Genetics (FUSION) Study	MH	phs000100-T2D-001662	1				TYPE 2 DIABETES		Diabetes Mellitus Type 2		DIABETES		Y							1																																																				1									
phs000100.v3.p1, The Finland-United States Investigation of NIDDM Genetics (FUSION) Study	MH	phs000100-T2D-001663	1				TYPE 2 DIABETES		Diabetes Mellitus Type 2		DIABETES		N							1																																																				1									
phs000100.v3.p1, The Finland-United States Investigation of NIDDM Genetics (FUSION) Study	MH	phs000100-T2D-001664	1				TYPE 2 DIABETES		Diabetes Mellitus Type 2		DIABETES		N							1																																																				1									
phs000100.v3.p1, The Finland-United States Investigation of NIDDM Genetics (FUSION) Study	MH	phs000100-T2D-001665	1				TYPE 2 DIABETES		Diabetes Mellitus Type 2		DIABETES		N							1																																																				1									
phs000100.v3.p1, The Finland-United States Investigation of NIDDM Genetics (FUSION) Study	MH	phs000100-T2D-001666	1				TYPE 2 DIABETES		Diabetes Mellitus Type 2		DIABETES		N							1																																																				1									
phs000100.v3.p1, The Finland-United States Investigation of NIDDM Genetics (FUSION) Study	MH	phs000100-T2D-001667	1				TYPE 2 DIABETES		Diabetes Mellitus Type 2		DIABETES		N							1																																																				1									
phs000100.v3.p1, The Finland-United States Investigation of NIDDM Genetics (FUSION) Study	MH	phs000100-T2D-001668	1				TYPE 2 DIABETES		Diabetes Mellitus Type 2		DIABETES		Y							1																																																				1									
phs000100.v3.p1, The Finland-United States Investigation of NIDDM Genetics (FUSION) Study	MH	phs000100-T2D-001669	1				TYPE 2 DIABETES		Diabetes Mellitus Type 2		DIABETES		N							1																																																				1									
phs000100.v3.p1, The Finland-United States Investigation of NIDDM Genetics (FUSION) Study	MH	phs000100-T2D-001670	1				TYPE 2 DIABETES		Diabetes Mellitus Type 2		DIABETES		Y							1																																																				1									
phs000100.v3.p1, The Finland-United States Investigation of NIDDM Genetics (FUSION) Study	MH	phs000100-T2D-001671	1				TYPE 2 DIABETES		Diabetes Mellitus Type 2		DIABETES		Y							1																																																				1									
phs000100.v3.p1, The Finland-United States Investigation of NIDDM Genetics (FUSION) Study	MH	phs000100-T2D-001672	1				TYPE 2 DIABETES		Diabetes Mellitus Type 2		DIABETES		Y							1																																																				1									
phs000100.v3.p1, The Finland-United States Investigation of NIDDM Genetics (FUSION) Study	MH	phs000100-T2D-001673	1				TYPE 2 DIABETES		Diabetes Mellitus Type 2		DIABETES		Y							1																																																				1									
phs000100.v3.p1, The Finland-United States Investigation of NIDDM Genetics (FUSION) Study	MH	phs000100-T2D-001674	1				TYPE 2 DIABETES		Diabetes Mellitus Type 2		DIABETES		N							1																																																				1									
phs000100.v3.p1, The Finland-United States Investigation of NIDDM Genetics (FUSION) Study	MH	phs000100-T2D-001675	1				TYPE 2 DIABETES		Diabetes Mellitus Type 2		DIABETES		Y							1																																																				1									
phs000100.v3.p1, The Finland-United States Investigation of NIDDM Genetics (FUSION) Study	MH	phs000100-T2D-001676	1				TYPE 2 DIABETES		Diabetes Mellitus Type 2		DIABETES		N							1																																																				1									
phs000100.v3.p1, The Finland-United States Investigation of NIDDM Genetics (FUSION) Study	MH	phs000100-T2D-001677	1				TYPE 2 DIABETES		Diabetes Mellitus Type 2		DIABETES		N							1																																																				1									
phs000100.v3.p1, The Finland-United States Investigation of NIDDM Genetics (FUSION) Study	MH	phs000100-T2D-001678	1				TYPE 2 DIABETES		Diabetes Mellitus Type 2		DIABETES		N							1																																																				1									
phs000100.v3.p1, The Finland-United States Investigation of NIDDM Genetics (FUSION) Study	MH	phs000100-T2D-001679	1				TYPE 2 DIABETES		Diabetes Mellitus Type 2		DIABETES		Y							1																																																				1									
phs000100.v3.p1, The Finland-United States Investigation of NIDDM Genetics (FUSION) Study	MH	phs000100-T2D-001680	1				TYPE 2 DIABETES		Diabetes Mellitus Type 2		DIABETES		Y							1																																																				1									
phs000100.v3.p1, The Finland-United States Investigation of NIDDM Genetics (FUSION) Study	MH	phs000100-T2D-001681	1				TYPE 2 DIABETES		Diabetes Mellitus Type 2		DIABETES		N							1																																																				1									
phs000100.v3.p1, The Finland-United States Investigation of NIDDM Genetics (FUSION) Study	MH	phs000100-T2D-001682	1				TYPE 2 DIABETES		Diabetes Mellitus Type 2		DIABETES		Y							1																																																				1									
phs000100.v3.p1, The Finland-United States Investigation of NIDDM Genetics (FUSION) Study	MH	phs000100-T2D-001683	1				TYPE 2 DIABETES		Diabetes Mellitus Type 2		DIABETES		Y							1																																																				1									
phs000100.v3.p1, The Finland-United States Investigation of NIDDM Genetics (FUSION) Study	MH	phs000100-T2D-001684	1				TYPE 2 DIABETES		Diabetes Mellitus Type 2		DIABETES		Y							1																																																				1									
phs000100.v3.p1, The Finland-United States Investigation of NIDDM Genetics (FUSION) Study	MH	phs000100-T2D-001685	1				TYPE 2 DIABETES		Diabetes Mellitus Type 2		DIABETES		Y							1																																																				1									
phs000100.v3.p1, The Finland-United States Investigation of NIDDM Genetics (FUSION) Study	MH	phs000100-T2D-001686	1				TYPE 2 DIABETES		Diabetes Mellitus Type 2		DIABETES		Y							1																																																				1									
phs000100.v3.p1, The Finland-United States Investigation of NIDDM Genetics (FUSION) Study	MH	phs000100-T2D-001687	1				TYPE 2 DIABETES		Diabetes Mellitus Type 2		DIABETES		Y							1																																																				1									
phs000100.v3.p1, The Finland-United States Investigation of NIDDM Genetics (FUSION) Study	MH	phs000100-T2D-001688	1				TYPE 2 DIABETES		Diabetes Mellitus Type 2		DIABETES		N							1																																																				1									
phs000100.v3.p1, The Finland-United States Investigation of NIDDM Genetics (FUSION) Study	MH	phs000100-T2D-001689	1				TYPE 2 DIABETES		Diabetes Mellitus Type 2		DIABETES		N							1																																																				1									
phs000100.v3.p1, The Finland-United States Investigation of NIDDM Genetics (FUSION) Study	MH	phs000100-T2D-001690	1				TYPE 2 DIABETES		Diabetes Mellitus Type 2		DIABETES		N							1																																																				1									
phs000100.v3.p1, The Finland-United States Investigation of NIDDM Genetics (FUSION) Study	MH	phs000100-T2D-001691	1				TYPE 2 DIABETES		Diabetes Mellitus Type 2		DIABETES		Y							1																																																				1									
phs000100.v3.p1, The Finland-United States Investigation of NIDDM Genetics (FUSION) Study	MH	phs000100-T2D-001692	1				TYPE 2 DIABETES		Diabetes Mellitus Type 2		DIABETES		N							1																																																				1									
phs000100.v3.p1, The Finland-United States Investigation of NIDDM Genetics (FUSION) Study	MH	phs000100-T2D-001693	1				TYPE 2 DIABETES		Diabetes Mellitus Type 2		DIABETES		N							1																																																				1									
phs000100.v3.p1, The Finland-United States Investigation of NIDDM Genetics (FUSION) Study	MH	phs000100-T2D-001694	1				TYPE 2 DIABETES		Diabetes Mellitus Type 2		DIABETES		Y							1																																																				1									
phs000100.v3.p1, The Finland-United States Investigation of NIDDM Genetics (FUSION) Study	MH	phs000100-T2D-001695	1				TYPE 2 DIABETES		Diabetes Mellitus Type 2		DIABETES		N							1																																																				1									
phs000100.v3.p1, The Finland-United States Investigation of NIDDM Genetics (FUSION) Study	MH	phs000100-T2D-001696	1				TYPE 2 DIABETES		Diabetes Mellitus Type 2		DIABETES		Y							1																																																				1									
phs000100.v3.p1, The Finland-United States Investigation of NIDDM Genetics (FUSION) Study	MH	phs000100-T2D-001697	1				TYPE 2 DIABETES		Diabetes Mellitus Type 2		DIABETES		N							1																																																				1									
phs000100.v3.p1, The Finland-United States Investigation of NIDDM Genetics (FUSION) Study	MH	phs000100-T2D-001698	1				TYPE 2 DIABETES		Diabetes Mellitus Type 2		DIABETES		Y							1																																																				1									
phs000100.v3.p1, The Finland-United States Investigation of NIDDM Genetics (FUSION) Study	MH	phs000100-T2D-001699	1				TYPE 2 DIABETES		Diabetes Mellitus Type 2		DIABETES		Y							1																																																				1									
phs000100.v3.p1, The Finland-United States Investigation of NIDDM Genetics (FUSION) Study	MH	phs000100-T2D-001700	1				TYPE 2 DIABETES		Diabetes Mellitus Type 2		DIABETES		N							1																																																				1									
phs000100.v3.p1, The Finland-United States Investigation of NIDDM Genetics (FUSION) Study	MH	phs000100-T2D-001701	1				TYPE 2 DIABETES		Diabetes Mellitus Type 2		DIABETES		Y							1																																																				1									
phs000100.v3.p1, The Finland-United States Investigation of NIDDM Genetics (FUSION) Study	MH	phs000100-T2D-001702	1				TYPE 2 DIABETES		Diabetes Mellitus Type 2		DIABETES		Y							1																																																				1									
phs000100.v3.p1, The Finland-United States Investigation of NIDDM Genetics (FUSION) Study	MH	phs000100-T2D-001703	1				TYPE 2 DIABETES		Diabetes Mellitus Type 2		DIABETES		N							1																																																				1									
phs000100.v3.p1, The Finland-United States Investigation of NIDDM Genetics (FUSION) Study	MH	phs000100-T2D-001704	1				TYPE 2 DIABETES		Diabetes Mellitus Type 2		DIABETES		Y							1																																																				1									
phs000100.v3.p1, The Finland-United States Investigation of NIDDM Genetics (FUSION) Study	MH	phs000100-T2D-001705	1				TYPE 2 DIABETES		Diabetes Mellitus Type 2		DIABETES		Y							1																																																				1									
phs000100.v3.p1, The Finland-United States Investigation of NIDDM Genetics (FUSION) Study	MH	phs000100-T2D-001706	1				TYPE 2 DIABETES		Diabetes Mellitus Type 2		DIABETES		Y							1																																																				1									
phs000100.v3.p1, The Finland-United States Investigation of NIDDM Genetics (FUSION) Study	MH	phs000100-T2D-001707	1				TYPE 2 DIABETES		Diabetes Mellitus Type 2		DIABETES		N							1																																																				1									
phs000100.v3.p1, The Finland-United States Investigation of NIDDM Genetics (FUSION) Study	MH	phs000100-T2D-001708	1				TYPE 2 DIABETES		Diabetes Mellitus Type 2		DIABETES		N							1																																																				1									
phs000100.v3.p1, The Finland-United States Investigation of NIDDM Genetics (FUSION) Study	MH	phs000100-T2D-001709	1				TYPE 2 DIABETES		Diabetes Mellitus Type 2		DIABETES		Y							1																																																				1									
phs000100.v3.p1, The Finland-United States Investigation of NIDDM Genetics (FUSION) Study	MH	phs000100-T2D-001710	1				TYPE 2 DIABETES		Diabetes Mellitus Type 2		DIABETES		Y							1																																																				1									
phs000100.v3.p1, The Finland-United States Investigation of NIDDM Genetics (FUSION) Study	MH	phs000100-T2D-001711	1				TYPE 2 DIABETES		Diabetes Mellitus Type 2		DIABETES		Y							1																																																				1									
phs000100.v3.p1, The Finland-United States Investigation of NIDDM Genetics (FUSION) Study	MH	phs000100-T2D-001712	1				TYPE 2 DIABETES		Diabetes Mellitus Type 2		DIABETES		Y							1																																																				1									
phs000100.v3.p1, The Finland-United States Investigation of NIDDM Genetics (FUSION) Study	MH	phs000100-T2D-001713	1				TYPE 2 DIABETES		Diabetes Mellitus Type 2		DIABETES		N							1																																																				1									
phs000100.v3.p1, The Finland-United States Investigation of NIDDM Genetics (FUSION) Study	MH	phs000100-T2D-001714	1				TYPE 2 DIABETES		Diabetes Mellitus Type 2		DIABETES		N							1																																																				1									
phs000100.v3.p1, The Finland-United States Investigation of NIDDM Genetics (FUSION) Study	MH	phs000100-T2D-001715	1				TYPE 2 DIABETES		Diabetes Mellitus Type 2		DIABETES		Y							1																																																				1									
phs000100.v3.p1, The Finland-United States Investigation of NIDDM Genetics (FUSION) Study	MH	phs000100-T2D-001716	1				TYPE 2 DIABETES		Diabetes Mellitus Type 2		DIABETES		Y							1																																																				1									
phs000100.v3.p1, The Finland-United States Investigation of NIDDM Genetics (FUSION) Study	MH	phs000100-T2D-001717	1				TYPE 2 DIABETES		Diabetes Mellitus Type 2		DIABETES		N							1																																																				1									
phs000100.v3.p1, The Finland-United States Investigation of NIDDM Genetics (FUSION) Study	MH	phs000100-T2D-001718	1				TYPE 2 DIABETES		Diabetes Mellitus Type 2		DIABETES		Y							1																																																				1									
phs000100.v3.p1, The Finland-United States Investigation of NIDDM Genetics (FUSION) Study	MH	phs000100-T2D-001719	1				TYPE 2 DIABETES		Diabetes Mellitus Type 2		DIABETES		N							1																																																				1									
phs000100.v3.p1, The Finland-United States Investigation of NIDDM Genetics (FUSION) Study	MH	phs000100-T2D-001720	1				TYPE 2 DIABETES		Diabetes Mellitus Type 2		DIABETES		N							1																																																				1									
phs000100.v3.p1, The Finland-United States Investigation of NIDDM Genetics (FUSION) Study	MH	phs000100-T2D-001721	1				TYPE 2 DIABETES		Diabetes Mellitus Type 2		DIABETES		Y							1																																																				1									
phs000100.v3.p1, The Finland-United States Investigation of NIDDM Genetics (FUSION) Study	MH	phs000100-T2D-001722	1				TYPE 2 DIABETES		Diabetes Mellitus Type 2		DIABETES		N							1																																																				1									
phs000100.v3.p1, The Finland-United States Investigation of NIDDM Genetics (FUSION) Study	MH	phs000100-T2D-001723	1				TYPE 2 DIABETES		Diabetes Mellitus Type 2		DIABETES		Y							1																																																				1									
phs000100.v3.p1, The Finland-United States Investigation of NIDDM Genetics (FUSION) Study	MH	phs000100-T2D-001724	1				TYPE 2 DIABETES		Diabetes Mellitus Type 2		DIABETES		N							1																																																				1									
phs000100.v3.p1, The Finland-United States Investigation of NIDDM Genetics (FUSION) Study	MH	phs000100-T2D-001725	1				TYPE 2 DIABETES		Diabetes Mellitus Type 2		DIABETES		N							1																																																				1									
phs000100.v3.p1, The Finland-United States Investigation of NIDDM Genetics (FUSION) Study	MH	phs000100-T2D-001726	1				TYPE 2 DIABETES		Diabetes Mellitus Type 2		DIABETES		N							1																																																				1									
phs000100.v3.p1, The Finland-United States Investigation of NIDDM Genetics (FUSION) Study	MH	phs000100-T2D-001727	1				TYPE 2 DIABETES		Diabetes Mellitus Type 2		DIABETES		Y							1																																																				1									
phs000100.v3.p1, The Finland-United States Investigation of NIDDM Genetics (FUSION) Study	MH	phs000100-T2D-001728	1				TYPE 2 DIABETES		Diabetes Mellitus Type 2		DIABETES		Y							1																																																				1									
phs000100.v3.p1, The Finland-United States Investigation of NIDDM Genetics (FUSION) Study	MH	phs000100-T2D-001729	1				TYPE 2 DIABETES		Diabetes Mellitus Type 2		DIABETES		Y							1																																																				1									
phs000100.v3.p1, The Finland-United States Investigation of NIDDM Genetics (FUSION) Study	MH	phs000100-T2D-001730	1				TYPE 2 DIABETES		Diabetes Mellitus Type 2		DIABETES		N							1																																																				1									
phs000100.v3.p1, The Finland-United States Investigation of NIDDM Genetics (FUSION) Study	MH	phs000100-T2D-001731	1				TYPE 2 DIABETES		Diabetes Mellitus Type 2		DIABETES		Y							1																																																				1									
phs000100.v3.p1, The Finland-United States Investigation of NIDDM Genetics (FUSION) Study	MH	phs000100-T2D-001732	1				TYPE 2 DIABETES		Diabetes Mellitus Type 2		DIABETES		N							1																																																				1									
phs000100.v3.p1, The Finland-United States Investigation of NIDDM Genetics (FUSION) Study	MH	phs000100-T2D-001733	1				TYPE 2 DIABETES		Diabetes Mellitus Type 2		DIABETES		N							1																																																				1									
phs000100.v3.p1, The Finland-United States Investigation of NIDDM Genetics (FUSION) Study	MH	phs000100-T2D-001734	1				TYPE 2 DIABETES		Diabetes Mellitus Type 2		DIABETES		N							1																																																				1									
phs000100.v3.p1, The Finland-United States Investigation of NIDDM Genetics (FUSION) Study	MH	phs000100-T2D-001735	1				TYPE 2 DIABETES		Diabetes Mellitus Type 2		DIABETES		Y							1																																																				1									
phs000100.v3.p1, The Finland-United States Investigation of NIDDM Genetics (FUSION) Study	MH	phs000100-T2D-001736	1				TYPE 2 DIABETES		Diabetes Mellitus Type 2		DIABETES		Y							1																																																				1									
phs000100.v3.p1, The Finland-United States Investigation of NIDDM Genetics (FUSION) Study	MH	phs000100-T2D-001737	1				TYPE 2 DIABETES		Diabetes Mellitus Type 2		DIABETES		N							1																																																				1									
phs000100.v3.p1, The Finland-United States Investigation of NIDDM Genetics (FUSION) Study	MH	phs000100-T2D-001738	1				TYPE 2 DIABETES		Diabetes Mellitus Type 2		DIABETES		N							1																																																				1									
phs000100.v3.p1, The Finland-United States Investigation of NIDDM Genetics (FUSION) Study	MH	phs000100-T2D-001739	1				TYPE 2 DIABETES		Diabetes Mellitus Type 2		DIABETES		N							1																																																				1									
phs000100.v3.p1, The Finland-United States Investigation of NIDDM Genetics (FUSION) Study	MH	phs000100-T2D-001740	1				TYPE 2 DIABETES		Diabetes Mellitus Type 2		DIABETES		Y							1																																																				1									
phs000100.v3.p1, The Finland-United States Investigation of NIDDM Genetics (FUSION) Study	MH	phs000100-T2D-001741	1				TYPE 2 DIABETES		Diabetes Mellitus Type 2		DIABETES		N							1																																																				1									
phs000100.v3.p1, The Finland-United States Investigation of NIDDM Genetics (FUSION) Study	MH	phs000100-T2D-001742	1				TYPE 2 DIABETES		Diabetes Mellitus Type 2		DIABETES		Y							1																																																				1									
phs000100.v3.p1, The Finland-United States Investigation of NIDDM Genetics (FUSION) Study	MH	phs000100-T2D-001743	1				TYPE 2 DIABETES		Diabetes Mellitus Type 2		DIABETES		N							1																																																				1									
phs000100.v3.p1, The Finland-United States Investigation of NIDDM Genetics (FUSION) Study	MH	phs000100-T2D-001744	1				TYPE 2 DIABETES		Diabetes Mellitus Type 2		DIABETES		Y							1																																																				1									
phs000100.v3.p1, The Finland-United States Investigation of NIDDM Genetics (FUSION) Study	MH	phs000100-T2D-001745	1				TYPE 2 DIABETES		Diabetes Mellitus Type 2		DIABETES		Y							1																																																				1									
phs000100.v3.p1, The Finland-United States Investigation of NIDDM Genetics (FUSION) Study	MH	phs000100-T2D-001746	1				TYPE 2 DIABETES		Diabetes Mellitus Type 2		DIABETES		Y							1																																																				1									
phs000100.v3.p1, The Finland-United States Investigation of NIDDM Genetics (FUSION) Study	MH	phs000100-T2D-001747	1				TYPE 2 DIABETES		Diabetes Mellitus Type 2		DIABETES		N							1																																																				1									
phs000100.v3.p1, The Finland-United States Investigation of NIDDM Genetics (FUSION) Study	MH	phs000100-T2D-001748	1				TYPE 2 DIABETES		Diabetes Mellitus Type 2		DIABETES		Y							1																																																				1									
phs000100.v3.p1, The Finland-United States Investigation of NIDDM Genetics (FUSION) Study	MH	phs000100-T2D-001749	1				TYPE 2 DIABETES		Diabetes Mellitus Type 2		DIABETES		Y							1																																																				1									
phs000100.v3.p1, The Finland-United States Investigation of NIDDM Genetics (FUSION) Study	MH	phs000100-T2D-001750	1				TYPE 2 DIABETES		Diabetes Mellitus Type 2		DIABETES		Y							1																																																				1									
phs000100.v3.p1, The Finland-United States Investigation of NIDDM Genetics (FUSION) Study	MH	phs000100-T2D-001751	1				TYPE 2 DIABETES		Diabetes Mellitus Type 2		DIABETES		Y							1																																																				1									
phs000100.v3.p1, The Finland-United States Investigation of NIDDM Genetics (FUSION) Study	MH	phs000100-T2D-001752	1				TYPE 2 DIABETES		Diabetes Mellitus Type 2		DIABETES		N							1																																																				1									
phs000100.v3.p1, The Finland-United States Investigation of NIDDM Genetics (FUSION) Study	MH	phs000100-T2D-001753	1				TYPE 2 DIABETES		Diabetes Mellitus Type 2		DIABETES		Y							1																																																				1									
phs000100.v3.p1, The Finland-United States Investigation of NIDDM Genetics (FUSION) Study	MH	phs000100-T2D-001754	1				TYPE 2 DIABETES		Diabetes Mellitus Type 2		DIABETES		Y							1																																																				1									
phs000100.v3.p1, The Finland-United States Investigation of NIDDM Genetics (FUSION) Study	MH	phs000100-T2D-001755	1				TYPE 2 DIABETES		Diabetes Mellitus Type 2		DIABETES		N							1																																																				1									
phs000100.v3.p1, The Finland-United States Investigation of NIDDM Genetics (FUSION) Study	MH	phs000100-T2D-001756	1				TYPE 2 DIABETES		Diabetes Mellitus Type 2		DIABETES		N							1																																																				1									
phs000100.v3.p1, The Finland-United States Investigation of NIDDM Genetics (FUSION) Study	MH	phs000100-T2D-001757	1				TYPE 2 DIABETES		Diabetes Mellitus Type 2		DIABETES		N							1																																																				1									
phs000100.v3.p1, The Finland-United States Investigation of NIDDM Genetics (FUSION) Study	MH	phs000100-T2D-001758	1				TYPE 2 DIABETES		Diabetes Mellitus Type 2		DIABETES		Y							1																																																				1									
phs000100.v3.p1, The Finland-United States Investigation of NIDDM Genetics (FUSION) Study	MH	phs000100-T2D-001759	1				TYPE 2 DIABETES		Diabetes Mellitus Type 2		DIABETES		N							1																																																				1									
phs000100.v3.p1, The Finland-United States Investigation of NIDDM Genetics (FUSION) Study	MH	phs000100-T2D-001760	1				TYPE 2 DIABETES		Diabetes Mellitus Type 2		DIABETES		N							1																																																				1									
phs000100.v3.p1, The Finland-United States Investigation of NIDDM Genetics (FUSION) Study	MH	phs000100-T2D-001761	1				TYPE 2 DIABETES		Diabetes Mellitus Type 2		DIABETES		N							1																																																				1									
phs000100.v3.p1, The Finland-United States Investigation of NIDDM Genetics (FUSION) Study	MH	phs000100-T2D-001762	1				TYPE 2 DIABETES		Diabetes Mellitus Type 2		DIABETES		Y							1																																																				1									
phs000100.v3.p1, The Finland-United States Investigation of NIDDM Genetics (FUSION) Study	MH	phs000100-T2D-001763	1				TYPE 2 DIABETES		Diabetes Mellitus Type 2		DIABETES		N							1																																																				1									
phs000100.v3.p1, The Finland-United States Investigation of NIDDM Genetics (FUSION) Study	MH	phs000100-T2D-001764	1				TYPE 2 DIABETES		Diabetes Mellitus Type 2		DIABETES		Y							1																																																				1									
phs000100.v3.p1, The Finland-United States Investigation of NIDDM Genetics (FUSION) Study	MH	phs000100-T2D-001765	1				TYPE 2 DIABETES		Diabetes Mellitus Type 2		DIABETES		Y							1																																																				1									
phs000100.v3.p1, The Finland-United States Investigation of NIDDM Genetics (FUSION) Study	MH	phs000100-T2D-001766	1				TYPE 2 DIABETES		Diabetes Mellitus Type 2		DIABETES		Y							1																																																				1									
phs000100.v3.p1, The Finland-United States Investigation of NIDDM Genetics (FUSION) Study	MH	phs000100-T2D-001767	1				TYPE 2 DIABETES		Diabetes Mellitus Type 2		DIABETES		Y							1																																																				1									
phs000100.v3.p1, The Finland-United States Investigation of NIDDM Genetics (FUSION) Study	MH	phs000100-T2D-001768	1				TYPE 2 DIABETES		Diabetes Mellitus Type 2		DIABETES		N							1																																																				1									
phs000100.v3.p1, The Finland-United States Investigation of NIDDM Genetics (FUSION) Study	MH	phs000100-T2D-001769	1				TYPE 2 DIABETES		Diabetes Mellitus Type 2		DIABETES		Y							1																																																				1									
phs000100.v3.p1, The Finland-United States Investigation of NIDDM Genetics (FUSION) Study	MH	phs000100-T2D-001770	1				TYPE 2 DIABETES		Diabetes Mellitus Type 2		DIABETES		Y							1																																																				1									
phs000100.v3.p1, The Finland-United States Investigation of NIDDM Genetics (FUSION) Study	MH	phs000100-T2D-001771	1				TYPE 2 DIABETES		Diabetes Mellitus Type 2		DIABETES		Y							1																																																				1									
phs000100.v3.p1, The Finland-United States Investigation of NIDDM Genetics (FUSION) Study	MH	phs000100-T2D-001772	1				TYPE 2 DIABETES		Diabetes Mellitus Type 2		DIABETES		N							1																																																				1									
phs000100.v3.p1, The Finland-United States Investigation of NIDDM Genetics (FUSION) Study	MH	phs000100-T2D-001773	1				TYPE 2 DIABETES		Diabetes Mellitus Type 2		DIABETES		N							1																																																				1									
phs000100.v3.p1, The Finland-United States Investigation of NIDDM Genetics (FUSION) Study	MH	phs000100-T2D-001774	1				TYPE 2 DIABETES		Diabetes Mellitus Type 2		DIABETES		Y							1																																																				1									
phs000100.v3.p1, The Finland-United States Investigation of NIDDM Genetics (FUSION) Study	MH	phs000100-T2D-001775	1				TYPE 2 DIABETES		Diabetes Mellitus Type 2		DIABETES		Y							1																																																				1									
phs000100.v3.p1, The Finland-United States Investigation of NIDDM Genetics (FUSION) Study	MH	phs000100-T2D-001776	1				TYPE 2 DIABETES		Diabetes Mellitus Type 2		DIABETES		Y							1																																																				1									
phs000100.v3.p1, The Finland-United States Investigation of NIDDM Genetics (FUSION) Study	MH	phs000100-T2D-001777	1				TYPE 2 DIABETES		Diabetes Mellitus Type 2		DIABETES		Y							1																																																				1									
phs000100.v3.p1, The Finland-United States Investigation of NIDDM Genetics (FUSION) Study	MH	phs000100-T2D-001778	1				TYPE 2 DIABETES		Diabetes Mellitus Type 2		DIABETES		Y							1																																																				1									
phs000100.v3.p1, The Finland-United States Investigation of NIDDM Genetics (FUSION) Study	MH	phs000100-T2D-001779	1				TYPE 2 DIABETES		Diabetes Mellitus Type 2		DIABETES		Y							1																																																				1									
phs000100.v3.p1, The Finland-United States Investigation of NIDDM Genetics (FUSION) Study	MH	phs000100-T2D-001780	1				TYPE 2 DIABETES		Diabetes Mellitus Type 2		DIABETES		Y							1																																																				1									
phs000100.v3.p1, The Finland-United States Investigation of NIDDM Genetics (FUSION) Study	MH	phs000100-T2D-001781	1				TYPE 2 DIABETES		Diabetes Mellitus Type 2		DIABETES		Y							1																																																				1									
phs000100.v3.p1, The Finland-United States Investigation of NIDDM Genetics (FUSION) Study	MH	phs000100-T2D-001782	1				TYPE 2 DIABETES		Diabetes Mellitus Type 2		DIABETES		Y							1																																																				1									
phs000100.v3.p1, The Finland-United States Investigation of NIDDM Genetics (FUSION) Study	MH	phs000100-T2D-001783	1				TYPE 2 DIABETES		Diabetes Mellitus Type 2		DIABETES		Y							1																																																				1									
phs000100.v3.p1, The Finland-United States Investigation of NIDDM Genetics (FUSION) Study	MH	phs000100-T2D-001784	1				TYPE 2 DIABETES		Diabetes Mellitus Type 2		DIABETES		Y							1																																																				1									
phs000100.v3.p1, The Finland-United States Investigation of NIDDM Genetics (FUSION) Study	MH	phs000100-T2D-001785	1				TYPE 2 DIABETES		Diabetes Mellitus Type 2		DIABETES		N							1																																																				1									
phs000100.v3.p1, The Finland-United States Investigation of NIDDM Genetics (FUSION) Study	MH	phs000100-T2D-001786	1				TYPE 2 DIABETES		Diabetes Mellitus Type 2		DIABETES		Y							1																																																				1									
phs000100.v3.p1, The Finland-United States Investigation of NIDDM Genetics (FUSION) Study	MH	phs000100-T2D-001787	1				TYPE 2 DIABETES		Diabetes Mellitus Type 2		DIABETES		Y							1																																																				1									
phs000100.v3.p1, The Finland-United States Investigation of NIDDM Genetics (FUSION) Study	MH	phs000100-T2D-001788	1				TYPE 2 DIABETES		Diabetes Mellitus Type 2		DIABETES		Y							1																																																				1									
phs000100.v3.p1, The Finland-United States Investigation of NIDDM Genetics (FUSION) Study	MH	phs000100-T2D-001789	1				TYPE 2 DIABETES		Diabetes Mellitus Type 2		DIABETES		N							1																																																				1									
phs000100.v3.p1, The Finland-United States Investigation of NIDDM Genetics (FUSION) Study	MH	phs000100-T2D-001790	1				TYPE 2 DIABETES		Diabetes Mellitus Type 2		DIABETES		N							1																																																				1									
phs000100.v3.p1, The Finland-United States Investigation of NIDDM Genetics (FUSION) Study	MH	phs000100-T2D-001791	1				TYPE 2 DIABETES		Diabetes Mellitus Type 2		DIABETES		Y							1																																																				1									
phs000100.v3.p1, The Finland-United States Investigation of NIDDM Genetics (FUSION) Study	MH	phs000100-T2D-001792	1				TYPE 2 DIABETES		Diabetes Mellitus Type 2		DIABETES		N							1																																																				1									
phs000100.v3.p1, The Finland-United States Investigation of NIDDM Genetics (FUSION) Study	MH	phs000100-T2D-001793	1				TYPE 2 DIABETES		Diabetes Mellitus Type 2		DIABETES		N							1																																																				1									
phs000100.v3.p1, The Finland-United States Investigation of NIDDM Genetics (FUSION) Study	MH	phs000100-T2D-001794	1				TYPE 2 DIABETES		Diabetes Mellitus Type 2		DIABETES		N							1																																																				1									
phs000100.v3.p1, The Finland-United States Investigation of NIDDM Genetics (FUSION) Study	MH	phs000100-T2D-001795	1				TYPE 2 DIABETES		Diabetes Mellitus Type 2		DIABETES		N							1																																																				1									
phs000100.v3.p1, The Finland-United States Investigation of NIDDM Genetics (FUSION) Study	MH	phs000100-T2D-001796	1				TYPE 2 DIABETES		Diabetes Mellitus Type 2		DIABETES		Y							1																																																				1									
phs000100.v3.p1, The Finland-United States Investigation of NIDDM Genetics (FUSION) Study	MH	phs000100-T2D-001797	1				TYPE 2 DIABETES		Diabetes Mellitus Type 2		DIABETES		Y							1																																																				1									
phs000100.v3.p1, The Finland-United States Investigation of NIDDM Genetics (FUSION) Study	MH	phs000100-T2D-001798	1				TYPE 2 DIABETES		Diabetes Mellitus Type 2		DIABETES		Y							1																																																				1									
phs000100.v3.p1, The Finland-United States Investigation of NIDDM Genetics (FUSION) Study	MH	phs000100-T2D-001799	1				TYPE 2 DIABETES		Diabetes Mellitus Type 2		DIABETES		N							1																																																				1									
phs000100.v3.p1, The Finland-United States Investigation of NIDDM Genetics (FUSION) Study	MH	phs000100-T2D-001800	1				TYPE 2 DIABETES		Diabetes Mellitus Type 2		DIABETES		Y							1																																																				1									
phs000100.v3.p1, The Finland-United States Investigation of NIDDM Genetics (FUSION) Study	MH	phs000100-T2D-001801	1				TYPE 2 DIABETES		Diabetes Mellitus Type 2		DIABETES		N							1																																																				1									
phs000100.v3.p1, The Finland-United States Investigation of NIDDM Genetics (FUSION) Study	MH	phs000100-T2D-001802	1				TYPE 2 DIABETES		Diabetes Mellitus Type 2		DIABETES		N							1																																																				1									
phs000100.v3.p1, The Finland-United States Investigation of NIDDM Genetics (FUSION) Study	MH	phs000100-T2D-001803	1				TYPE 2 DIABETES		Diabetes Mellitus Type 2		DIABETES		N							1																																																				1									
phs000100.v3.p1, The Finland-United States Investigation of NIDDM Genetics (FUSION) Study	MH	phs000100-T2D-001804	1				TYPE 2 DIABETES		Diabetes Mellitus Type 2		DIABETES		Y							1																																																				1									
phs000100.v3.p1, The Finland-United States Investigation of NIDDM Genetics (FUSION) Study	MH	phs000100-T2D-001805	1				TYPE 2 DIABETES		Diabetes Mellitus Type 2		DIABETES		N							1																																																				1									
phs000100.v3.p1, The Finland-United States Investigation of NIDDM Genetics (FUSION) Study	MH	phs000100-T2D-001806	1				TYPE 2 DIABETES		Diabetes Mellitus Type 2		DIABETES		N							1																																																				1									
phs000100.v3.p1, The Finland-United States Investigation of NIDDM Genetics (FUSION) Study	MH	phs000100-T2D-001807	1				TYPE 2 DIABETES		Diabetes Mellitus Type 2		DIABETES		Y							1																																																				1									
phs000100.v3.p1, The Finland-United States Investigation of NIDDM Genetics (FUSION) Study	MH	phs000100-T2D-001808	1				TYPE 2 DIABETES		Diabetes Mellitus Type 2		DIABETES		N							1																																																				1									
phs000100.v3.p1, The Finland-United States Investigation of NIDDM Genetics (FUSION) Study	MH	phs000100-T2D-001809	1				TYPE 2 DIABETES		Diabetes Mellitus Type 2		DIABETES		N							1																																																				1									
phs000100.v3.p1, The Finland-United States Investigation of NIDDM Genetics (FUSION) Study	MH	phs000100-T2D-001810	1				TYPE 2 DIABETES		Diabetes Mellitus Type 2		DIABETES		Y							1																																																				1									
phs000100.v3.p1, The Finland-United States Investigation of NIDDM Genetics (FUSION) Study	MH	phs000100-T2D-001811	1				TYPE 2 DIABETES		Diabetes Mellitus Type 2		DIABETES		N							1																																																				1									
phs000100.v3.p1, The Finland-United States Investigation of NIDDM Genetics (FUSION) Study	MH	phs000100-T2D-001812	1				TYPE 2 DIABETES		Diabetes Mellitus Type 2		DIABETES		N							1																																																				1									
phs000100.v3.p1, The Finland-United States Investigation of NIDDM Genetics (FUSION) Study	MH	phs000100-T2D-001813	1				TYPE 2 DIABETES		Diabetes Mellitus Type 2		DIABETES		Y							1																																																				1									
phs000100.v3.p1, The Finland-United States Investigation of NIDDM Genetics (FUSION) Study	MH	phs000100-T2D-001814	1				TYPE 2 DIABETES		Diabetes Mellitus Type 2		DIABETES		Y							1																																																				1									
phs000100.v3.p1, The Finland-United States Investigation of NIDDM Genetics (FUSION) Study	MH	phs000100-T2D-001815	1				TYPE 2 DIABETES		Diabetes Mellitus Type 2		DIABETES		Y							1																																																				1									
phs000100.v3.p1, The Finland-United States Investigation of NIDDM Genetics (FUSION) Study	MH	phs000100-T2D-001816	1				TYPE 2 DIABETES		Diabetes Mellitus Type 2		DIABETES		Y							1																																																				1									
phs000100.v3.p1, The Finland-United States Investigation of NIDDM Genetics (FUSION) Study	MH	phs000100-T2D-001817	1				TYPE 2 DIABETES		Diabetes Mellitus Type 2		DIABETES		Y							1																																																				1									
phs000100.v3.p1, The Finland-United States Investigation of NIDDM Genetics (FUSION) Study	MH	phs000100-T2D-001818	1				TYPE 2 DIABETES		Diabetes Mellitus Type 2		DIABETES		N							1																																																				1									
phs000100.v3.p1, The Finland-United States Investigation of NIDDM Genetics (FUSION) Study	MH	phs000100-T2D-001819	1				TYPE 2 DIABETES		Diabetes Mellitus Type 2		DIABETES		N							1																																																				1									
phs000100.v3.p1, The Finland-United States Investigation of NIDDM Genetics (FUSION) Study	MH	phs000100-T2D-001820	1				TYPE 2 DIABETES		Diabetes Mellitus Type 2		DIABETES		N							1																																																				1									
phs000100.v3.p1, The Finland-United States Investigation of NIDDM Genetics (FUSION) Study	MH	phs000100-T2D-001821	1				TYPE 2 DIABETES		Diabetes Mellitus Type 2		DIABETES		N							1																																																				1									
phs000100.v3.p1, The Finland-United States Investigation of NIDDM Genetics (FUSION) Study	MH	phs000100-T2D-001822	1				TYPE 2 DIABETES		Diabetes Mellitus Type 2		DIABETES		N							1																																																				1									
phs000100.v3.p1, The Finland-United States Investigation of NIDDM Genetics (FUSION) Study	MH	phs000100-T2D-001823	1				TYPE 2 DIABETES		Diabetes Mellitus Type 2		DIABETES		Y							1																																																				1									
phs000100.v3.p1, The Finland-United States Investigation of NIDDM Genetics (FUSION) Study	MH	phs000100-T2D-001824	1				TYPE 2 DIABETES		Diabetes Mellitus Type 2		DIABETES		Y							1																																																				1									
phs000100.v3.p1, The Finland-United States Investigation of NIDDM Genetics (FUSION) Study	MH	phs000100-T2D-001825	1				TYPE 2 DIABETES		Diabetes Mellitus Type 2		DIABETES		Y							1																																																				1									
phs000100.v3.p1, The Finland-United States Investigation of NIDDM Genetics (FUSION) Study	MH	phs000100-T2D-001826	1				TYPE 2 DIABETES		Diabetes Mellitus Type 2		DIABETES		Y							1																																																				1									
phs000100.v3.p1, The Finland-United States Investigation of NIDDM Genetics (FUSION) Study	MH	phs000100-T2D-001827	1				TYPE 2 DIABETES		Diabetes Mellitus Type 2		DIABETES		Y							1																																																				1									
phs000100.v3.p1, The Finland-United States Investigation of NIDDM Genetics (FUSION) Study	MH	phs000100-T2D-001828	1				TYPE 2 DIABETES		Diabetes Mellitus Type 2		DIABETES		Y							1																																																				1									
phs000100.v3.p1, The Finland-United States Investigation of NIDDM Genetics (FUSION) Study	MH	phs000100-T2D-001829	1				TYPE 2 DIABETES		Diabetes Mellitus Type 2		DIABETES		Y							1																																																				1									
phs000100.v3.p1, The Finland-United States Investigation of NIDDM Genetics (FUSION) Study	MH	phs000100-T2D-001830	1				TYPE 2 DIABETES		Diabetes Mellitus Type 2		DIABETES		Y							1																																																				1									
phs000100.v3.p1, The Finland-United States Investigation of NIDDM Genetics (FUSION) Study	MH	phs000100-T2D-001831	1				TYPE 2 DIABETES		Diabetes Mellitus Type 2		DIABETES		N							1																																																				1									
phs000100.v3.p1, The Finland-United States Investigation of NIDDM Genetics (FUSION) Study	MH	phs000100-T2D-001832	1				TYPE 2 DIABETES		Diabetes Mellitus Type 2		DIABETES		N							1																																																				1									
phs000100.v3.p1, The Finland-United States Investigation of NIDDM Genetics (FUSION) Study	MH	phs000100-T2D-001833	1				TYPE 2 DIABETES		Diabetes Mellitus Type 2		DIABETES		N							1																																																				1									
phs000100.v3.p1, The Finland-United States Investigation of NIDDM Genetics (FUSION) Study	MH	phs000100-T2D-001834	1				TYPE 2 DIABETES		Diabetes Mellitus Type 2		DIABETES		Y							1																																																				1									
phs000100.v3.p1, The Finland-United States Investigation of NIDDM Genetics (FUSION) Study	MH	phs000100-T2D-001835	1				TYPE 2 DIABETES		Diabetes Mellitus Type 2		DIABETES		Y							1																																																				1									
phs000100.v3.p1, The Finland-United States Investigation of NIDDM Genetics (FUSION) Study	MH	phs000100-T2D-001836	1				TYPE 2 DIABETES		Diabetes Mellitus Type 2		DIABETES		Y							1																																																				1									
phs000100.v3.p1, The Finland-United States Investigation of NIDDM Genetics (FUSION) Study	MH	phs000100-T2D-001837	1				TYPE 2 DIABETES		Diabetes Mellitus Type 2		DIABETES		N							1																																																				1									
phs000100.v3.p1, The Finland-United States Investigation of NIDDM Genetics (FUSION) Study	MH	phs000100-T2D-001838	1				TYPE 2 DIABETES		Diabetes Mellitus Type 2		DIABETES		Y							1																																																				1									
phs000100.v3.p1, The Finland-United States Investigation of NIDDM Genetics (FUSION) Study	MH	phs000100-T2D-001839	1				TYPE 2 DIABETES		Diabetes Mellitus Type 2		DIABETES		Y							1																																																				1									
phs000100.v3.p1, The Finland-United States Investigation of NIDDM Genetics (FUSION) Study	MH	phs000100-T2D-001840	1				TYPE 2 DIABETES		Diabetes Mellitus Type 2		DIABETES		N							1																																																				1									
phs000100.v3.p1, The Finland-United States Investigation of NIDDM Genetics (FUSION) Study	MH	phs000100-T2D-001841	1				TYPE 2 DIABETES		Diabetes Mellitus Type 2		DIABETES		Y							1																																																				1									
phs000100.v3.p1, The Finland-United States Investigation of NIDDM Genetics (FUSION) Study	MH	phs000100-T2D-001842	1				TYPE 2 DIABETES		Diabetes Mellitus Type 2		DIABETES		N							1																																																				1									
phs000100.v3.p1, The Finland-United States Investigation of NIDDM Genetics (FUSION) Study	MH	phs000100-T2D-001843	1				TYPE 2 DIABETES		Diabetes Mellitus Type 2		DIABETES		Y							1																																																				1									
phs000100.v3.p1, The Finland-United States Investigation of NIDDM Genetics (FUSION) Study	MH	phs000100-T2D-001844	1				TYPE 2 DIABETES		Diabetes Mellitus Type 2		DIABETES		Y							1																																																				1									
phs000100.v3.p1, The Finland-United States Investigation of NIDDM Genetics (FUSION) Study	MH	phs000100-T2D-001845	1				TYPE 2 DIABETES		Diabetes Mellitus Type 2		DIABETES		Y							1																																																				1									
phs000100.v3.p1, The Finland-United States Investigation of NIDDM Genetics (FUSION) Study	MH	phs000100-T2D-001846	1				TYPE 2 DIABETES		Diabetes Mellitus Type 2		DIABETES		N							1																																																				1									
phs000100.v3.p1, The Finland-United States Investigation of NIDDM Genetics (FUSION) Study	MH	phs000100-T2D-001847	1				TYPE 2 DIABETES		Diabetes Mellitus Type 2		DIABETES		N							1																																																				1									
phs000100.v3.p1, The Finland-United States Investigation of NIDDM Genetics (FUSION) Study	MH	phs000100-T2D-001848	1				TYPE 2 DIABETES		Diabetes Mellitus Type 2		DIABETES		Y							1																																																				1									
phs000100.v3.p1, The Finland-United States Investigation of NIDDM Genetics (FUSION) Study	MH	phs000100-T2D-001849	1				TYPE 2 DIABETES		Diabetes Mellitus Type 2		DIABETES		Y							1																																																				1									
phs000100.v3.p1, The Finland-United States Investigation of NIDDM Genetics (FUSION) Study	MH	phs000100-T2D-001850	1				TYPE 2 DIABETES		Diabetes Mellitus Type 2		DIABETES		N							1																																																				1									
phs000100.v3.p1, The Finland-United States Investigation of NIDDM Genetics (FUSION) Study	MH	phs000100-T2D-001851	1				TYPE 2 DIABETES		Diabetes Mellitus Type 2		DIABETES		Y							1																																																				1									
phs000100.v3.p1, The Finland-United States Investigation of NIDDM Genetics (FUSION) Study	MH	phs000100-T2D-001852	1				TYPE 2 DIABETES		Diabetes Mellitus Type 2		DIABETES		N							1																																																				1									
phs000100.v3.p1, The Finland-United States Investigation of NIDDM Genetics (FUSION) Study	MH	phs000100-T2D-001853	1				TYPE 2 DIABETES		Diabetes Mellitus Type 2		DIABETES		Y							1																																																				1									
phs000100.v3.p1, The Finland-United States Investigation of NIDDM Genetics (FUSION) Study	MH	phs000100-T2D-001854	1				TYPE 2 DIABETES		Diabetes Mellitus Type 2		DIABETES		N							1																																																				1									
phs000100.v3.p1, The Finland-United States Investigation of NIDDM Genetics (FUSION) Study	MH	phs000100-T2D-001855	1				TYPE 2 DIABETES		Diabetes Mellitus Type 2		DIABETES		N							1																																																				1									
phs000100.v3.p1, The Finland-United States Investigation of NIDDM Genetics (FUSION) Study	MH	phs000100-T2D-001856	1				TYPE 2 DIABETES		Diabetes Mellitus Type 2		DIABETES		Y							1																																																				1									
phs000100.v3.p1, The Finland-United States Investigation of NIDDM Genetics (FUSION) Study	MH	phs000100-T2D-001857	1				TYPE 2 DIABETES		Diabetes Mellitus Type 2		DIABETES		N							1																																																				1									
phs000100.v3.p1, The Finland-United States Investigation of NIDDM Genetics (FUSION) Study	MH	phs000100-T2D-001858	1				TYPE 2 DIABETES		Diabetes Mellitus Type 2		DIABETES		Y							1																																																				1									
phs000100.v3.p1, The Finland-United States Investigation of NIDDM Genetics (FUSION) Study	MH	phs000100-T2D-001859	1				TYPE 2 DIABETES		Diabetes Mellitus Type 2		DIABETES		N							1																																																				1									
phs000100.v3.p1, The Finland-United States Investigation of NIDDM Genetics (FUSION) Study	MH	phs000100-T2D-001860	1				TYPE 2 DIABETES		Diabetes Mellitus Type 2		DIABETES		N							1																																																				1									
