STUDYID	DOMAIN	USUBJID	PRSEQ	PRGRPID	PRSPID	PRLNKID	PRLNKGRP	PRTRT	PRDECOD	PRCAT	PRSCAT	PRPRESP	PROCCUR	PRINDC	PRDOSE	PRDOSTXT	PRDOSU	PRDOSFRM	PRDOSFRQ	PRDOSRGM	PRROUTE	PRLOC	PRLAT	PRDIR	PRPORTOT	VISITNUM	VISIT	VISITDY	PRSTDTC	PRENDTC	PRSTDY	PRENDY	PRDUR	PRTPT	PRTPTNUM	PRELTM	PRTPTREF	PRRFTDTC	PRSTRTPT	PRSTTPT	PRENRTPT	PRENTPT	PRREFID	PRMODIFY	PRDECOD	PRMOOD	PRSTAT	PRREASND	PRCLAS	PRCLASCD	PRDOSTOT	PRLOT	PRFAST	PRPSTRG	PRPSTRGU	PRADJ	EPOCH	PRSTRF	PRENRF	PRTRTV	PRVAMT	PRVAMTU	POOLID	SPDEVID	TAETORD	PRDTC	PRDY	PREVLINT	PREVINTX	PRSTINT	PRENINT	PRDETECT
GSE26760	PR	MM-01450	1					Radiation, NOS						Induction																	442.5						From diagnosis																																			
GSE26760	PR	MM-01555	1					Radiation, NOS						Induction																	35.4						From diagnosis																																			
GSE36824	PR	MM-01757	1					Radiation, NOS						Recurrence																	1494						From diagnosis																																			
