STUDYID	RDOMAIN	USUBJID	IDVAR	IDVARVAL	RELTYPE	RELID
GSE1402	MH		MHSEQ		ONE	
GSE1402	FA		FASEQ		ONE	
GSE20098	MH		MHSEQ		ONE	
GSE20098	FA		FASEQ		ONE	
GSE20690	MH		MHSEQ		ONE	
GSE20690	FA		FASEQ		ONE	
GSE24742	MH		MHSEQ		ONE	
GSE24742	FA		FASEQ		ONE	
