STUDYID	DOMAIN	USUBJID	MISEQ	MIGRPID	MIREFID	MISPID	MITESTCD	MITEST	MITSTDTL	MICAT	MISCAT	MIORRES	MIORRESU	MISTRESC	MISTRESN	MISTRESU	MIRESCAT	MISTAT	MIREASND	MINAM	MISPEC	MISPCCND	MILOC	MILAT	MIDIR	MIMETHOD	MIBLFL	MIEVAL	VISITNUM	VISIT	VISITDY	MIDTC	MIDY	MILNKID	MILNKGRP	MIMODIFY	MIPOS	MIBODSYS	MIORNRLO	MIORNRHI	MISTNRLO	MISTNRHI	MISTNRC	MINRIND	MIXFN	MILOINC	MIANTREG	MISPCUFL	MIPORTOT	MIRUNID	MIANMETH	MILEAD	MICSTATE	MIFAST	MIDRVFL	MITOX	MITOXGR	MIEVALID	MIACPTFL	MISEV	MIDTHREL	MILLOQ	MIULOQ	EPOCH	MIENDTC	MIRFTDTC	MITPT	MITPTNUM	MIELTM	MITPTREF	MIEVLINT	MISTINT	MIENINT	MIEXCLFL	MIREASEX	POOLID	SPDEVID	TAETORD	MISTDTC	MISTDY	MIENDY	MIDUR	MIEVINTX	MISTRTPT	MISTTPT	MIENRTPT	MIENTPT
GSE1710	MI	IBD-00184	1				MIEXAM	Microscopic Examination				LYMPHOID AGGREGATES WITH GERMINAL CENTERS		LYMPHOID AGGREGATES WITH GERMINAL CENTERS																			1																																																						
GSE1710	MI	IBD-00185	1				MIEXAM	Microscopic Examination				EOSINOPHILIC-RICH INFILTRATE		EOSINOPHILIC-RICH INFILTRATE																			1																																																						
GSE1710	MI	IBD-00185	2				MIEXAM	Microscopic Examination				EOSINOPHILIC CRYPTITIS		EOSINOPHILIC CRYPTITIS																			1																																																						
GSE1710	MI	IBD-00185	3				MIEXAM	Microscopic Examination				LYMPHOID AGGREGATES WITH GERMINAL CENTERS		LYMPHOID AGGREGATES WITH GERMINAL CENTERS																			1																																																						
GSE1710	MI	IBD-00186	1				MIEXAM	Microscopic Examination				EOSINOPHILIC CRYPTITIS		EOSINOPHILIC CRYPTITIS																			1																																																						
GSE1710	MI	IBD-00186	2				MIEXAM	Microscopic Examination				PANETH CELL METAPLASIA		PANETH CELL METAPLASIA																			1																																																						
GSE1710	MI	IBD-00188	1				MIEXAM	Microscopic Examination				PANETH CELL METAPLASIA		PANETH CELL METAPLASIA																			1																																																						
GSE1710	MI	IBD-00192	1				MIEXAM	Microscopic Examination				PANETH CELL METAPLASIA		PANETH CELL METAPLASIA																			1																																																						
