STUDYID	DOMAIN	USUBJID	HOSEQ	HOGRPID	HOREFID	HOSPID	HOTERM	HODECOD	HOCAT	HOSCAT	HOPRESP	HOOCCUR	HOSTAT	HOREASND	HODTC	HOSTDTC	HOENDTC	HODY	HOSTDY	HOENDY	HODUR	HOSTRTPT	HOSTTPT	HOENRTPT	HOENTPT	HOMODIFY	HOLLT	HOLLTCD	HOPTCD	HOHLT	HOHLTCD	HOHLGT	HOHLGTCD	HOBODSYS	HOBDSYCD	HOSOC	HOSOCCD	HOLOC	HOLAT	HODIR	HOPORTOT	HOPARTY	HOPRTYID	HOSEV	HOSER	HOACN	HOACNOTH	HOACNDEV	HOREL	HORELNST	HOPATT	HOOUT	HOSCAN	HOSCONG	HOSDISAB	HOSDTH	HOSHOSP	HOSLIFE	HOSOD	HOSMIE	HOCONTRT	HOTOX	HOTOXGR	EPOCH	HOSTRF	HOENRF	POOLID	SPDEVID	HOLNKID	HOLNKGRP	VISITNUM	VISIT	VISITDY	TAETORD	HOTPT	HOTPTNUM	HOELTM	HOTPTREF	HORFTDTC	HOEVLINT	HOEVINTX	HOSTINT	HOENINT
E-MTAB-331	HO	IBD-01060	1				HOSPITAL					Y						158																																																																	
