STUDYID	DOMAIN	USUBJID	PRSEQ	PRGRPID	PRSPID	PRLNKID	PRLNKGRP	PRTRT	PRDECOD	PRCAT	PRSCAT	PRPRESP	PROCCUR	PRINDC	PRDOSE	PRDOSTXT	PRDOSU	PRDOSFRM	PRDOSFRQ	PRDOSRGM	PRROUTE	PRLOC	PRLAT	PRDIR	PRPORTOT	VISITNUM	VISIT	VISITDY	PRSTDTC	PRENDTC	PRSTDY	PRENDY	PRDUR	PRTPT	PRTPTNUM	PRELTM	PRTPTREF	PRRFTDTC	PRSTRTPT	PRSTTPT	PRENRTPT	PRENTPT	PRREFID	PRMODIFY	PRMOOD	PRSTAT	PRREASND	PRCLAS	PRCLASCD	PRDOSTOT	PRLOT	PRFAST	PRPSTRG	PRPSTRGU	PRADJ	EPOCH	PRSTRF	PRENRF	PRTRTV	PRVAMT	PRVAMTU	POOLID	SPDEVID	TAETORD	PRDTC	PRDY	PREVLINT	PREVINTX	PRSTINT	PRENINT	PRDETECT
GSE1710	PR	IBD-00184	1					SURGERY					N																										BEFORE	START OF STUDY																															
GSE1710	PR	IBD-00185	1					SURGERY					N																										BEFORE	START OF STUDY																															
GSE1710	PR	IBD-00186	1					SURGERY					N																										BEFORE	START OF STUDY																															
GSE1710	PR	IBD-00187	1					SURGERY					N																										BEFORE	START OF STUDY																															
GSE1710	PR	IBD-00188	1					SURGERY					N																										BEFORE	START OF STUDY																															
GSE1710	PR	IBD-00189	1					SURGERY					N																										BEFORE	START OF STUDY																															
GSE1710	PR	IBD-00190	1					SURGERY					N																										BEFORE	START OF STUDY																															
GSE1710	PR	IBD-00191	1					SURGERY					N																										BEFORE	START OF STUDY																															
GSE1710	PR	IBD-00192	1					SURGERY					N																										BEFORE	START OF STUDY																															
GSE1710	PR	IBD-00193	1					SURGERY					N																										BEFORE	START OF STUDY																															
