STUDYID	RDOMAIN	USUBJID	IDVAR	IDVARVAL	QNAM	QLABEL	QVAL	QORIG	QEVAL
GSE6731	MH	IBD-00096	MHSEQ	1	MONTA	Montreal Age Classification	A3	DERIVED	
GSE6731	MH	IBD-00096	MHSEQ	1	MONTL	Montreal Location Classification	L3	DERIVED	
GSE6731	MH	IBD-00096	MHSEQ	4	MHLOC1	Location of Event 1	ILEUM	PUBLIC SOURCE	
GSE6731	MH	IBD-00096	MHSEQ	4	MHLOC2	Location of Event 2	COLON	PUBLIC SOURCE	
GSE6731	MH	IBD-00097	MHSEQ	1	MONTA	Montreal Age Classification	A1	DERIVED	
GSE6731	MH	IBD-00097	MHSEQ	1	MONTL	Montreal Location Classification	L2	DERIVED	
GSE6731	MH	IBD-00098	MHSEQ	1	MONTA	Montreal Age Classification	A3	DERIVED	
GSE6731	MH	IBD-00098	MHSEQ	1	MONTL	Montreal Location Classification	L2	DERIVED	
GSE6731	MH	IBD-00099	MHSEQ	1	MONTA	Montreal Age Classification	A2	DERIVED	
GSE6731	MH	IBD-00099	MHSEQ	1	MONTL	Montreal Location Classification	L2	DERIVED	
GSE6731	MH	IBD-00100	MHSEQ	1	MONTA	Montreal Age Classification	A3	DERIVED	
GSE6731	MH	IBD-00100	MHSEQ	1	MONTL	Montreal Location Classification	L3	DERIVED	
GSE6731	MH	IBD-00100	MHSEQ	3	MHLOC1	Location of Event 1	ILEUM	PUBLIC SOURCE	
GSE6731	MH	IBD-00100	MHSEQ	3	MHLOC2	Location of Event 2	COLON	PUBLIC SOURCE	
GSE1710	MH	IBD-00184	MHSEQ	1	MONTA	Montreal Age Classification	A2	DERIVED	
GSE1710	MH	IBD-00184	MHSEQ	1	MONTL	Montreal Location Classification	L2	DERIVED	
GSE1710	MH	IBD-00185	MHSEQ	1	MONTA	Montreal Age Classification	A2	DERIVED	
GSE1710	MH	IBD-00185	MHSEQ	1	MONTL	Montreal Location Classification	L2	DERIVED	
GSE1710	MH	IBD-00186	MHSEQ	1	MONTA	Montreal Age Classification	A2	DERIVED	
GSE1710	MH	IBD-00186	MHSEQ	1	MONTL	Montreal Location Classification	L2	DERIVED	
GSE1710	MH	IBD-00187	MHSEQ	1	MONTA	Montreal Age Classification	A2	DERIVED	
GSE1710	MH	IBD-00187	MHSEQ	1	MONTL	Montreal Location Classification	L2	DERIVED	
GSE1710	MH	IBD-00188	MHSEQ	1	MONTA	Montreal Age Classification	A2	DERIVED	
GSE1710	MH	IBD-00188	MHSEQ	1	MONTL	Montreal Location Classification	L2	DERIVED	
GSE1710	MH	IBD-00189	MHSEQ	1	MONTA	Montreal Age Classification	A2	DERIVED	
GSE1710	MH	IBD-00189	MHSEQ	1	MONTL	Montreal Location Classification	L3	DERIVED	
GSE1710	MH	IBD-00189	MHSEQ	2	MHLOC1	Location of Event 1	ILEUM	PUBLIC SOURCE	
GSE1710	MH	IBD-00189	MHSEQ	2	MHLOC2	Location of Event 2	COLON	PUBLIC SOURCE	
GSE1710	MH	IBD-00190	MHSEQ	1	MONTA	Montreal Age Classification	A2	DERIVED	
GSE1710	MH	IBD-00190	MHSEQ	1	MONTL	Montreal Location Classification	L2	DERIVED	
GSE1710	MH	IBD-00191	MHSEQ	1	MONTA	Montreal Age Classification	A3	DERIVED	
GSE1710	MH	IBD-00191	MHSEQ	1	MONTL	Montreal Location Classification	L3	DERIVED	
GSE1710	MH	IBD-00191	MHSEQ	2	MHLOC1	Location of Event 1	ILEUM	PUBLIC SOURCE	
GSE1710	MH	IBD-00191	MHSEQ	2	MHLOC2	Location of Event 2	COLON	PUBLIC SOURCE	
GSE1710	MH	IBD-00192	MHSEQ	1	MONTA	Montreal Age Classification	A2	DERIVED	
GSE1710	MH	IBD-00192	MHSEQ	1	MONTL	Montreal Location Classification	L2	DERIVED	
GSE1710	MH	IBD-00193	MHSEQ	1	MONTA	Montreal Age Classification	A2	DERIVED	
GSE1710	MH	IBD-00193	MHSEQ	1	MONTL	Montreal Location Classification	L2	DERIVED	
E-MEXP-2083	MH	IBD-00302	MHSEQ	1	MONTA	Montreal Age Classification	A2	DERIVED	
E-MEXP-2083	MH	IBD-00304	MHSEQ	1	MONTA	Montreal Age Classification	A3	DERIVED	
E-MEXP-2083	MH	IBD-00306	MHSEQ	1	MONTA	Montreal Age Classification	A2	DERIVED	
E-MEXP-2083	MH	IBD-00310	MHSEQ	1	MONTA	Montreal Age Classification	A2	DERIVED	
E-MEXP-2083	MH	IBD-00314	MHSEQ	1	MONTA	Montreal Age Classification	A3	DERIVED	
E-MEXP-2083	MH	IBD-00322	MHSEQ	1	MONTA	Montreal Age Classification	A2	DERIVED	
E-MTAB-331	MH	IBD-00550	MHSEQ	1	MONTE	Montreal Extent Classification	E3	PUBLIC SOURCE	
GSE22619	MH	IBD-00595	MHSEQ	1	MONTA	Montreal Age Classification	A2	DERIVED	
GSE22619	MH	IBD-00595	MHSEQ	1	MONTL	Montreal Location Classification	L3	DERIVED	
GSE22619	MH	IBD-00595	MHSEQ	2	MHLOC1	Location of Event 1	ILEUM	PUBLIC SOURCE	
GSE22619	MH	IBD-00595	MHSEQ	2	MHLOC2	Location of Event 2	COLON	PUBLIC SOURCE	
GSE22619	MH	IBD-00597	MHSEQ	1	MONTA	Montreal Age Classification	A3	DERIVED	
GSE22619	MH	IBD-00597	MHSEQ	1	MONTL	Montreal Location Classification	L2	DERIVED	
GSE22619	MH	IBD-00599	MHSEQ	1	MONTA	Montreal Age Classification	A1	DERIVED	
GSE22619	MH	IBD-00599	MHSEQ	1	MONTL	Montreal Location Classification	L2	DERIVED	
GSE22619	MH	IBD-00601	MHSEQ	1	MONTA	Montreal Age Classification	A2	DERIVED	
GSE22619	MH	IBD-00601	MHSEQ	1	MONTL	Montreal Location Classification	L2	DERIVED	
GSE22619	MH	IBD-00603	MHSEQ	1	MONTA	Montreal Age Classification	A2	DERIVED	
GSE22619	MH	IBD-00605	MHSEQ	1	MONTA	Montreal Age Classification	A1	DERIVED	
GSE22619	MH	IBD-00607	MHSEQ	1	MONTA	Montreal Age Classification	A2	DERIVED	
GSE22619	MH	IBD-00607	MHSEQ	1	MONTL	Montreal Location Classification	L3	DERIVED	
GSE22619	MH	IBD-00607	MHSEQ	2	MHLOC1	Location of Event 1	ILEUM	PUBLIC SOURCE	
GSE22619	MH	IBD-00607	MHSEQ	2	MHLOC2	Location of Event 2	COLON	PUBLIC SOURCE	
GSE22619	MH	IBD-00609	MHSEQ	1	MONTA	Montreal Age Classification	A2	DERIVED	
GSE22619	MH	IBD-00609	MHSEQ	1	MONTL	Montreal Location Classification	L2	DERIVED	
GSE9452	MH	IBD-00672	MHSEQ	1	MONTA	Montreal Age Classification	A3	DERIVED	
GSE9452	MH	IBD-00674	MHSEQ	1	MONTA	Montreal Age Classification	A2	DERIVED	
GSE9452	MH	IBD-00676	MHSEQ	1	MONTA	Montreal Age Classification	A1	DERIVED	
GSE9452	MH	IBD-00678	MHSEQ	1	MONTA	Montreal Age Classification	A2	DERIVED	
GSE9452	MH	IBD-00680	MHSEQ	1	MONTA	Montreal Age Classification	A2	DERIVED	
GSE9452	MH	IBD-00682	MHSEQ	1	MONTA	Montreal Age Classification	A2	DERIVED	
GSE9452	MH	IBD-00684	MHSEQ	1	MONTA	Montreal Age Classification	A2	DERIVED	
GSE9452	MH	IBD-00686	MHSEQ	1	MONTA	Montreal Age Classification	A3	DERIVED	
GSE9452	MH	IBD-00688	MHSEQ	1	MONTA	Montreal Age Classification	A2	DERIVED	
GSE9452	MH	IBD-00690	MHSEQ	1	MONTA	Montreal Age Classification	A1	DERIVED	
GSE9452	MH	IBD-00692	MHSEQ	1	MONTA	Montreal Age Classification	A2	DERIVED	
GSE9452	MH	IBD-00694	MHSEQ	1	MONTA	Montreal Age Classification	A2	DERIVED	
GSE9452	MH	IBD-00695	MHSEQ	1	MONTA	Montreal Age Classification	A2	DERIVED	
GSE9452	MH	IBD-00697	MHSEQ	1	MONTA	Montreal Age Classification	A2	DERIVED	
GSE9452	MH	IBD-00698	MHSEQ	1	MONTA	Montreal Age Classification	A2	DERIVED	
GSE9452	MH	IBD-00700	MHSEQ	1	MONTA	Montreal Age Classification	A3	DERIVED	
GSE9452	MH	IBD-00701	MHSEQ	1	MONTA	Montreal Age Classification	A2	DERIVED	
GSE9452	MH	IBD-00703	MHSEQ	1	MONTA	Montreal Age Classification	A2	DERIVED	
GSE9452	MH	IBD-00705	MHSEQ	1	MONTA	Montreal Age Classification	A2	DERIVED	
GSE9452	MH	IBD-00707	MHSEQ	1	MONTA	Montreal Age Classification	A3	DERIVED	
GSE9452	MH	IBD-00709	MHSEQ	1	MONTA	Montreal Age Classification	A2	DERIVED	
E-MTAB-331	MH	IBD-01028	MHSEQ	1	MONTE	Montreal Extent Classification	E2	PUBLIC SOURCE	
E-MTAB-331	MH	IBD-01030	MHSEQ	1	MONTE	Montreal Extent Classification	E3	PUBLIC SOURCE	
E-MTAB-331	MH	IBD-01031	MHSEQ	1	MONTE	Montreal Extent Classification	E3	PUBLIC SOURCE	
E-MTAB-331	MH	IBD-01033	MHSEQ	1	MONTE	Montreal Extent Classification	E1	PUBLIC SOURCE	
E-MTAB-331	MH	IBD-01034	MHSEQ	1	MONTE	Montreal Extent Classification	E2	PUBLIC SOURCE	
E-MTAB-331	MH	IBD-01036	MHSEQ	1	MONTE	Montreal Extent Classification	E3	PUBLIC SOURCE	
E-MTAB-331	MH	IBD-01037	MHSEQ	1	MONTE	Montreal Extent Classification	E2	PUBLIC SOURCE	
E-MTAB-331	MH	IBD-01039	MHSEQ	1	MONTE	Montreal Extent Classification	E3	PUBLIC SOURCE	
E-MTAB-331	MH	IBD-01040	MHSEQ	1	MONTE	Montreal Extent Classification	E2	PUBLIC SOURCE	
E-MTAB-331	MH	IBD-01042	MHSEQ	1	MONTE	Montreal Extent Classification	E3	PUBLIC SOURCE	
E-MTAB-331	MH	IBD-01043	MHSEQ	1	MONTE	Montreal Extent Classification	E2	PUBLIC SOURCE	
E-MTAB-331	MH	IBD-01045	MHSEQ	1	MONTE	Montreal Extent Classification	E1	PUBLIC SOURCE	
E-MTAB-331	MH	IBD-01047	MHSEQ	1	MONTE	Montreal Extent Classification	E3	PUBLIC SOURCE	
E-MTAB-331	MH	IBD-01048	MHSEQ	1	MONTE	Montreal Extent Classification	E1	PUBLIC SOURCE	
E-MTAB-331	MH	IBD-01050	MHSEQ	1	MONTE	Montreal Extent Classification	E2	PUBLIC SOURCE	
E-MTAB-331	MH	IBD-01051	MHSEQ	1	MONTE	Montreal Extent Classification	E3	PUBLIC SOURCE	
E-MTAB-331	MH	IBD-01053	MHSEQ	1	MONTE	Montreal Extent Classification	E2	PUBLIC SOURCE	
E-MTAB-331	MH	IBD-01054	MHSEQ	1	MONTE	Montreal Extent Classification	E2	PUBLIC SOURCE	
E-MTAB-331	MH	IBD-01056	MHSEQ	1	MONTE	Montreal Extent Classification	E2	PUBLIC SOURCE	
E-MTAB-331	MH	IBD-01057	MHSEQ	1	MONTE	Montreal Extent Classification	E2	PUBLIC SOURCE	
E-MTAB-331	MH	IBD-01059	MHSEQ	1	MONTE	Montreal Extent Classification	E1	PUBLIC SOURCE	
E-MTAB-331	MH	IBD-01060	MHSEQ	1	MONTE	Montreal Extent Classification	E3	PUBLIC SOURCE	
E-MTAB-331	MH	IBD-01062	MHSEQ	1	MONTE	Montreal Extent Classification	E2	PUBLIC SOURCE	
E-MTAB-331	MH	IBD-01063	MHSEQ	1	MONTE	Montreal Extent Classification	E2	PUBLIC SOURCE	
E-MTAB-331	MH	IBD-01065	MHSEQ	1	MONTE	Montreal Extent Classification	E3	PUBLIC SOURCE	
E-MTAB-331	MH	IBD-01066	MHSEQ	1	MONTE	Montreal Extent Classification	E1	PUBLIC SOURCE	
E-MTAB-331	MH	IBD-01067	MHSEQ	1	MONTE	Montreal Extent Classification	E3	PUBLIC SOURCE	
E-MTAB-331	MH	IBD-01068	MHSEQ	1	MONTE	Montreal Extent Classification	E3	PUBLIC SOURCE	
E-MTAB-331	MH	IBD-01069	MHSEQ	1	MONTE	Montreal Extent Classification	E3	PUBLIC SOURCE	
E-MTAB-331	MH	IBD-01070	MHSEQ	1	MONTE	Montreal Extent Classification	E1	PUBLIC SOURCE	
E-MTAB-331	MH	IBD-01075	MHSEQ	1	MONTE	Montreal Extent Classification	E2	PUBLIC SOURCE	
