STUDYID	RDOMAIN	USUBJID	IDVAR	IDVARVAL	QNAM	QLABEL	QVAL	QORIG	QEVAL
GSE22619	BE	GSE22619-IBD-03620	BESEQ	1	BESPEC	Specimen Type	RNA	PUBLIC SOURCE	
GSE22619	BE	GSE22619-IBD-03620	BESEQ	2	UCSTATUS	Ulcerative Colitis Status	INACTIVE ULCERATIVE COLITIS	PUBLIC SOURCE	
GSE22619	BE	GSE22619-IBD-03620	BESEQ	2	BESPEC	Specimen Type	COLON, SIGMOID	PUBLIC SOURCE	
GSE22619	BE	GSE22619-IBD-03621	BESEQ	1	BESPEC	Specimen Type	RNA	PUBLIC SOURCE	
GSE22619	BE	GSE22619-IBD-03621	BESEQ	2	UCSTATUS	Ulcerative Colitis Status	INACTIVE ULCERATIVE COLITIS	PUBLIC SOURCE	
GSE22619	BE	GSE22619-IBD-03621	BESEQ	2	BESPEC	Specimen Type	COLON, SIGMOID	PUBLIC SOURCE	
GSE2461	BE	IBD-00005	BESEQ	1	BESPEC	Specimen Type	RNA	PUBLIC SOURCE	
GSE2461	BE	IBD-00005	BESEQ	2	UCSTATUS	Ulcerative Colitis Status	INACTIVE ULCERATIVE COLITIS	PUBLIC SOURCE	
GSE2461	BE	IBD-00005	BESEQ	2	BESPEC	Specimen Type	COLON	PUBLIC SOURCE	
GSE4183	BE	IBD-00022	BESEQ	1	BESPEC	Specimen Type	RNA	PUBLIC SOURCE	
GSE4183	BE	IBD-00022	BESEQ	2	UCSTATUS	Ulcerative Colitis Status	ACTIVE ULCERATIVE COLITIS	PUBLIC SOURCE	
GSE4183	BE	IBD-00022	BESEQ	2	BESPEC	Specimen Type	COLON	PUBLIC SOURCE	
GSE4183	BE	IBD-00023	BESEQ	1	BESPEC	Specimen Type	RNA	PUBLIC SOURCE	
GSE4183	BE	IBD-00023	BESEQ	2	UCSTATUS	Ulcerative Colitis Status	ACTIVE ULCERATIVE COLITIS	PUBLIC SOURCE	
GSE4183	BE	IBD-00023	BESEQ	2	BESPEC	Specimen Type	COLON	PUBLIC SOURCE	
GSE4183	BE	IBD-00024	BESEQ	1	BESPEC	Specimen Type	RNA	PUBLIC SOURCE	
GSE4183	BE	IBD-00024	BESEQ	2	UCSTATUS	Ulcerative Colitis Status	ACTIVE ULCERATIVE COLITIS	PUBLIC SOURCE	
GSE4183	BE	IBD-00024	BESEQ	2	BESPEC	Specimen Type	COLON, SIGMOID	PUBLIC SOURCE	
GSE4183	BE	IBD-00025	BESEQ	1	BESPEC	Specimen Type	RNA	PUBLIC SOURCE	
GSE4183	BE	IBD-00025	BESEQ	2	UCSTATUS	Ulcerative Colitis Status	ACTIVE ULCERATIVE COLITIS	PUBLIC SOURCE	
GSE4183	BE	IBD-00025	BESEQ	2	BESPEC	Specimen Type	COLON	PUBLIC SOURCE	
GSE4183	BE	IBD-00026	BESEQ	1	BESPEC	Specimen Type	RNA	PUBLIC SOURCE	
GSE4183	BE	IBD-00026	BESEQ	2	UCSTATUS	Ulcerative Colitis Status	ACTIVE ULCERATIVE COLITIS	PUBLIC SOURCE	
GSE4183	BE	IBD-00026	BESEQ	2	BESPEC	Specimen Type	COLON	PUBLIC SOURCE	
GSE4183	BE	IBD-00027	BESEQ	1	BESPEC	Specimen Type	RNA	PUBLIC SOURCE	
GSE4183	BE	IBD-00027	BESEQ	2	UCSTATUS	Ulcerative Colitis Status	ACTIVE ULCERATIVE COLITIS	PUBLIC SOURCE	
GSE4183	BE	IBD-00027	BESEQ	2	BESPEC	Specimen Type	COLON, SIGMOID	PUBLIC SOURCE	
GSE4183	BE	IBD-00028	BESEQ	1	BESPEC	Specimen Type	RNA	PUBLIC SOURCE	
GSE4183	BE	IBD-00028	BESEQ	2	UCSTATUS	Ulcerative Colitis Status	ACTIVE ULCERATIVE COLITIS	PUBLIC SOURCE	
GSE4183	BE	IBD-00028	BESEQ	2	BESPEC	Specimen Type	COLON	PUBLIC SOURCE	
GSE4183	BE	IBD-00029	BESEQ	1	BESPEC	Specimen Type	RNA	PUBLIC SOURCE	
GSE4183	BE	IBD-00029	BESEQ	2	UCSTATUS	Ulcerative Colitis Status	ACTIVE ULCERATIVE COLITIS	PUBLIC SOURCE	
GSE4183	BE	IBD-00029	BESEQ	2	BESPEC	Specimen Type	COLON	PUBLIC SOURCE	
GSE4183	BE	IBD-00030	BESEQ	1	BESPEC	Specimen Type	RNA	PUBLIC SOURCE	
GSE4183	BE	IBD-00030	BESEQ	2	UCSTATUS	Ulcerative Colitis Status	ACTIVE ULCERATIVE COLITIS	PUBLIC SOURCE	
GSE4183	BE	IBD-00030	BESEQ	2	BESPEC	Specimen Type	COLON, SIGMOID	PUBLIC SOURCE	
GSE10714	BE	IBD-00038	BESEQ	1	BESPEC	Specimen Type	RNA	PUBLIC SOURCE	
GSE10714	BE	IBD-00038	BESEQ	2	BESPEC	Specimen Type	COLON	PUBLIC SOURCE	
GSE10714	BE	IBD-00039	BESEQ	1	BESPEC	Specimen Type	RNA	PUBLIC SOURCE	
GSE10714	BE	IBD-00039	BESEQ	2	BESPEC	Specimen Type	COLON	PUBLIC SOURCE	
GSE10714	BE	IBD-00040	BESEQ	1	BESPEC	Specimen Type	RNA	PUBLIC SOURCE	
GSE10714	BE	IBD-00040	BESEQ	2	BESPEC	Specimen Type	COLON	PUBLIC SOURCE	
GSE11499	BE	IBD-00046	BESEQ	1	BESPEC	Specimen Type	RNA	PUBLIC SOURCE	
GSE11499	BE	IBD-00046	BESEQ	2	BESPEC	Specimen Type	PERIPHERAL BLOOD	PUBLIC SOURCE	
GSE11499	BE	IBD-00047	BESEQ	1	BESPEC	Specimen Type	RNA	PUBLIC SOURCE	
GSE11499	BE	IBD-00047	BESEQ	2	BESPEC	Specimen Type	PERIPHERAL BLOOD	PUBLIC SOURCE	
GSE11499	BE	IBD-00048	BESEQ	1	BESPEC	Specimen Type	RNA	PUBLIC SOURCE	
GSE11499	BE	IBD-00048	BESEQ	2	BESPEC	Specimen Type	PERIPHERAL BLOOD	PUBLIC SOURCE	
GSE11499	BE	IBD-00049	BESEQ	1	BESPEC	Specimen Type	RNA	PUBLIC SOURCE	
GSE11499	BE	IBD-00049	BESEQ	2	BESPEC	Specimen Type	PERIPHERAL BLOOD	PUBLIC SOURCE	
GSE11499	BE	IBD-00050	BESEQ	1	BESPEC	Specimen Type	RNA	PUBLIC SOURCE	
GSE11499	BE	IBD-00050	BESEQ	2	BESPEC	Specimen Type	PERIPHERAL BLOOD	PUBLIC SOURCE	
GSE11499	BE	IBD-00051	BESEQ	1	BESPEC	Specimen Type	RNA	PUBLIC SOURCE	
GSE11499	BE	IBD-00051	BESEQ	2	BESPEC	Specimen Type	PERIPHERAL BLOOD	PUBLIC SOURCE	
GSE6731	BE	IBD-00096	BESEQ	1	BESPEC	Specimen Type	RNA	PUBLIC SOURCE	
GSE6731	BE	IBD-00096	BESEQ	2	BESPEC	Specimen Type	RNA	PUBLIC SOURCE	
GSE6731	BE	IBD-00096	BESEQ	3	UCSTATUS	Ulcerative Colitis Status	ACTIVE ULCERATIVE COLITIS	PUBLIC SOURCE	
GSE6731	BE	IBD-00096	BESEQ	3	INFLAMM	Inflammation Status	INFLAMED	PUBLIC SOURCE	
GSE6731	BE	IBD-00096	BESEQ	3	BESPEC	Specimen Type	RECTUM	PUBLIC SOURCE	
GSE6731	BE	IBD-00096	BESEQ	4	UCSTATUS	Ulcerative Colitis Status	INACTIVE ULCERATIVE COLITIS	PUBLIC SOURCE	
GSE6731	BE	IBD-00096	BESEQ	4	INFLAMM	Inflammation Status	NOT INFLAMED	PUBLIC SOURCE	
GSE6731	BE	IBD-00096	BESEQ	4	BESPEC	Specimen Type	COLON	PUBLIC SOURCE	
GSE6731	BE	IBD-00097	BESEQ	1	BESPEC	Specimen Type	RNA	PUBLIC SOURCE	
GSE6731	BE	IBD-00097	BESEQ	2	BESPEC	Specimen Type	RNA	PUBLIC SOURCE	
GSE6731	BE	IBD-00097	BESEQ	3	UCSTATUS	Ulcerative Colitis Status	ACTIVE ULCERATIVE COLITIS	PUBLIC SOURCE	
GSE6731	BE	IBD-00097	BESEQ	3	INFLAMM	Inflammation Status	INFLAMED	PUBLIC SOURCE	
GSE6731	BE	IBD-00097	BESEQ	3	BESPEC	Specimen Type	RECTUM	PUBLIC SOURCE	
GSE6731	BE	IBD-00097	BESEQ	4	UCSTATUS	Ulcerative Colitis Status	INACTIVE ULCERATIVE COLITIS	PUBLIC SOURCE	
GSE6731	BE	IBD-00097	BESEQ	4	INFLAMM	Inflammation Status	NOT INFLAMED	PUBLIC SOURCE	
GSE6731	BE	IBD-00097	BESEQ	4	BESPEC	Specimen Type	COLON, ASCENDING	PUBLIC SOURCE	
GSE6731	BE	IBD-00098	BESEQ	1	BESPEC	Specimen Type	RNA	PUBLIC SOURCE	
GSE6731	BE	IBD-00098	BESEQ	2	BESPEC	Specimen Type	RNA	PUBLIC SOURCE	
GSE6731	BE	IBD-00098	BESEQ	3	UCSTATUS	Ulcerative Colitis Status	ACTIVE ULCERATIVE COLITIS	PUBLIC SOURCE	
GSE6731	BE	IBD-00098	BESEQ	3	INFLAMM	Inflammation Status	INFLAMED	PUBLIC SOURCE	
GSE6731	BE	IBD-00098	BESEQ	3	BESPEC	Specimen Type	COLON, SIGMOID	PUBLIC SOURCE	
GSE6731	BE	IBD-00098	BESEQ	4	UCSTATUS	Ulcerative Colitis Status	INACTIVE ULCERATIVE COLITIS	PUBLIC SOURCE	
GSE6731	BE	IBD-00098	BESEQ	4	INFLAMM	Inflammation Status	NOT INFLAMED	PUBLIC SOURCE	
GSE6731	BE	IBD-00098	BESEQ	4	BESPEC	Specimen Type	COLON, ASCENDING	PUBLIC SOURCE	
GSE6731	BE	IBD-00099	BESEQ	1	BESPEC	Specimen Type	RNA	PUBLIC SOURCE	
GSE6731	BE	IBD-00099	BESEQ	2	BESPEC	Specimen Type	RNA	PUBLIC SOURCE	
GSE6731	BE	IBD-00099	BESEQ	3	UCSTATUS	Ulcerative Colitis Status	ACTIVE ULCERATIVE COLITIS	PUBLIC SOURCE	
GSE6731	BE	IBD-00099	BESEQ	3	INFLAMM	Inflammation Status	INFLAMED	PUBLIC SOURCE	
GSE6731	BE	IBD-00099	BESEQ	3	BESPEC	Specimen Type	RECTUM	PUBLIC SOURCE	
GSE6731	BE	IBD-00099	BESEQ	4	UCSTATUS	Ulcerative Colitis Status	INACTIVE ULCERATIVE COLITIS	PUBLIC SOURCE	
GSE6731	BE	IBD-00099	BESEQ	4	INFLAMM	Inflammation Status	NOT INFLAMED	PUBLIC SOURCE	
GSE6731	BE	IBD-00099	BESEQ	4	BESPEC	Specimen Type	HEPATIC FLEXURE COLON	PUBLIC SOURCE	
GSE6731	BE	IBD-00100	BESEQ	1	BESPEC	Specimen Type	RNA	PUBLIC SOURCE	
GSE6731	BE	IBD-00100	BESEQ	2	UCSTATUS	Ulcerative Colitis Status	ACTIVE ULCERATIVE COLITIS	PUBLIC SOURCE	
GSE6731	BE	IBD-00100	BESEQ	2	INFLAMM	Inflammation Status	INFLAMED	PUBLIC SOURCE	
GSE6731	BE	IBD-00100	BESEQ	2	BESPEC	Specimen Type	COLON, SIGMOID	PUBLIC SOURCE	
GSE23597	BE	IBD-00124	BESEQ	1	BESPEC	Specimen Type	RNA	PUBLIC SOURCE	
GSE23597	BE	IBD-00124	BESEQ	2	BESPEC	Specimen Type	COLON	PUBLIC SOURCE	
GSE23597	BE	IBD-00125	BESEQ	1	BESPEC	Specimen Type	RNA	PUBLIC SOURCE	
GSE23597	BE	IBD-00125	BESEQ	2	BESPEC	Specimen Type	COLON	PUBLIC SOURCE	
GSE23597	BE	IBD-00126	BESEQ	1	BESPEC	Specimen Type	RNA	PUBLIC SOURCE	
GSE23597	BE	IBD-00126	BESEQ	2	BESPEC	Specimen Type	COLON	PUBLIC SOURCE	
GSE23597	BE	IBD-00127	BESEQ	1	BESPEC	Specimen Type	RNA	PUBLIC SOURCE	
GSE23597	BE	IBD-00127	BESEQ	2	BESPEC	Specimen Type	COLON	PUBLIC SOURCE	
GSE23597	BE	IBD-00128	BESEQ	1	BESPEC	Specimen Type	RNA	PUBLIC SOURCE	
GSE23597	BE	IBD-00128	BESEQ	2	BESPEC	Specimen Type	COLON	PUBLIC SOURCE	
GSE23597	BE	IBD-00129	BESEQ	1	BESPEC	Specimen Type	RNA	PUBLIC SOURCE	
GSE23597	BE	IBD-00129	BESEQ	2	BESPEC	Specimen Type	COLON	PUBLIC SOURCE	
GSE1710	BE	IBD-00184	BESEQ	1	BESPEC	Specimen Type	RNA	PUBLIC SOURCE	
GSE1710	BE	IBD-00184	BESEQ	2	AIAS	Acute Inflammatory Activity Score	A3	PUBLIC SOURCE	
GSE1710	BE	IBD-00184	BESEQ	2	CHRONSCR	Chronicity Score	C3	PUBLIC SOURCE	
GSE1710	BE	IBD-00184	BESEQ	2	BESPEC	Specimen Type	COLON, SIGMOID	PUBLIC SOURCE	
GSE1710	BE	IBD-00185	BESEQ	1	BESPEC	Specimen Type	RNA	PUBLIC SOURCE	
GSE1710	BE	IBD-00185	BESEQ	2	AIAS	Acute Inflammatory Activity Score	A1	PUBLIC SOURCE	
GSE1710	BE	IBD-00185	BESEQ	2	CHRONSCR	Chronicity Score	C3	PUBLIC SOURCE	
GSE1710	BE	IBD-00185	BESEQ	2	BESPEC	Specimen Type	COLON, SIGMOID	PUBLIC SOURCE	
GSE1710	BE	IBD-00186	BESEQ	1	BESPEC	Specimen Type	RNA	PUBLIC SOURCE	
GSE1710	BE	IBD-00186	BESEQ	2	AIAS	Acute Inflammatory Activity Score	A1	PUBLIC SOURCE	
GSE1710	BE	IBD-00186	BESEQ	2	CHRONSCR	Chronicity Score	C2	PUBLIC SOURCE	
GSE1710	BE	IBD-00186	BESEQ	2	BESPEC	Specimen Type	COLON, SIGMOID	PUBLIC SOURCE	
GSE1710	BE	IBD-00187	BESEQ	1	BESPEC	Specimen Type	RNA	PUBLIC SOURCE	
GSE1710	BE	IBD-00187	BESEQ	2	AIAS	Acute Inflammatory Activity Score	A0	PUBLIC SOURCE	
GSE1710	BE	IBD-00187	BESEQ	2	CHRONSCR	Chronicity Score	C1	PUBLIC SOURCE	
GSE1710	BE	IBD-00187	BESEQ	2	BESPEC	Specimen Type	COLON, SIGMOID	PUBLIC SOURCE	
GSE1710	BE	IBD-00188	BESEQ	1	BESPEC	Specimen Type	RNA	PUBLIC SOURCE	
GSE1710	BE	IBD-00188	BESEQ	2	AIAS	Acute Inflammatory Activity Score	A1	PUBLIC SOURCE	
GSE1710	BE	IBD-00188	BESEQ	2	CHRONSCR	Chronicity Score	C2	PUBLIC SOURCE	
GSE1710	BE	IBD-00188	BESEQ	2	BESPEC	Specimen Type	COLON, SIGMOID	PUBLIC SOURCE	
GSE1710	BE	IBD-00189	BESEQ	1	BESPEC	Specimen Type	RNA	PUBLIC SOURCE	
GSE1710	BE	IBD-00189	BESEQ	2	AIAS	Acute Inflammatory Activity Score	A2	PUBLIC SOURCE	
GSE1710	BE	IBD-00189	BESEQ	2	CHRONSCR	Chronicity Score	C3	PUBLIC SOURCE	
GSE1710	BE	IBD-00189	BESEQ	2	BESPEC	Specimen Type	COLON, SIGMOID	PUBLIC SOURCE	
GSE1710	BE	IBD-00190	BESEQ	1	BESPEC	Specimen Type	RNA	PUBLIC SOURCE	
GSE1710	BE	IBD-00190	BESEQ	2	AIAS	Acute Inflammatory Activity Score	A2	PUBLIC SOURCE	
GSE1710	BE	IBD-00190	BESEQ	2	CHRONSCR	Chronicity Score	C2	PUBLIC SOURCE	
GSE1710	BE	IBD-00190	BESEQ	2	BESPEC	Specimen Type	COLON, SIGMOID	PUBLIC SOURCE	
GSE1710	BE	IBD-00191	BESEQ	1	BESPEC	Specimen Type	RNA	PUBLIC SOURCE	
GSE1710	BE	IBD-00191	BESEQ	2	AIAS	Acute Inflammatory Activity Score	A3	PUBLIC SOURCE	
GSE1710	BE	IBD-00191	BESEQ	2	CHRONSCR	Chronicity Score	C3	PUBLIC SOURCE	
GSE1710	BE	IBD-00191	BESEQ	2	BESPEC	Specimen Type	COLON, SIGMOID	PUBLIC SOURCE	
GSE1710	BE	IBD-00192	BESEQ	1	BESPEC	Specimen Type	RNA	PUBLIC SOURCE	
GSE1710	BE	IBD-00192	BESEQ	2	AIAS	Acute Inflammatory Activity Score	A1	PUBLIC SOURCE	
GSE1710	BE	IBD-00192	BESEQ	2	CHRONSCR	Chronicity Score	C3	PUBLIC SOURCE	
GSE1710	BE	IBD-00192	BESEQ	2	BESPEC	Specimen Type	COLON, SIGMOID	PUBLIC SOURCE	
GSE1710	BE	IBD-00193	BESEQ	1	BESPEC	Specimen Type	RNA	PUBLIC SOURCE	
GSE1710	BE	IBD-00193	BESEQ	2	AIAS	Acute Inflammatory Activity Score	A3	PUBLIC SOURCE	
GSE1710	BE	IBD-00193	BESEQ	2	CHRONSCR	Chronicity Score	C3	PUBLIC SOURCE	
GSE1710	BE	IBD-00193	BESEQ	2	BESPEC	Specimen Type	COLON, SIGMOID	PUBLIC SOURCE	
GSE3365	BE	IBD-00295	BESEQ	1	BESPEC	Specimen Type	RNA	PUBLIC SOURCE	
GSE3365	BE	IBD-00295	BESEQ	2	BESPEC	Specimen Type	PERIPHERAL BLOOD MONONUCLEAR CELL	PUBLIC SOURCE	
GSE3365	BE	IBD-00295	BESEQ	3	BESPEC	Specimen Type	PERIPHERAL BLOOD	PUBLIC SOURCE	
GSE3365	BE	IBD-00296	BESEQ	1	BESPEC	Specimen Type	RNA	PUBLIC SOURCE	
GSE3365	BE	IBD-00296	BESEQ	2	BESPEC	Specimen Type	PERIPHERAL BLOOD MONONUCLEAR CELL	PUBLIC SOURCE	
GSE3365	BE	IBD-00296	BESEQ	3	BESPEC	Specimen Type	PERIPHERAL BLOOD	PUBLIC SOURCE	
GSE3365	BE	IBD-00297	BESEQ	1	BESPEC	Specimen Type	RNA	PUBLIC SOURCE	
GSE3365	BE	IBD-00297	BESEQ	2	BESPEC	Specimen Type	PERIPHERAL BLOOD MONONUCLEAR CELL	PUBLIC SOURCE	
GSE3365	BE	IBD-00297	BESEQ	3	BESPEC	Specimen Type	PERIPHERAL BLOOD	PUBLIC SOURCE	
GSE3365	BE	IBD-00298	BESEQ	1	BESPEC	Specimen Type	RNA	PUBLIC SOURCE	
GSE3365	BE	IBD-00298	BESEQ	2	BESPEC	Specimen Type	PERIPHERAL BLOOD MONONUCLEAR CELL	PUBLIC SOURCE	
GSE3365	BE	IBD-00298	BESEQ	3	BESPEC	Specimen Type	PERIPHERAL BLOOD	PUBLIC SOURCE	
GSE3365	BE	IBD-00299	BESEQ	1	BESPEC	Specimen Type	RNA	PUBLIC SOURCE	
GSE3365	BE	IBD-00299	BESEQ	2	BESPEC	Specimen Type	PERIPHERAL BLOOD MONONUCLEAR CELL	PUBLIC SOURCE	
GSE3365	BE	IBD-00299	BESEQ	3	BESPEC	Specimen Type	PERIPHERAL BLOOD	PUBLIC SOURCE	
GSE3365	BE	IBD-00300	BESEQ	1	BESPEC	Specimen Type	RNA	PUBLIC SOURCE	
GSE3365	BE	IBD-00300	BESEQ	2	BESPEC	Specimen Type	PERIPHERAL BLOOD MONONUCLEAR CELL	PUBLIC SOURCE	
GSE3365	BE	IBD-00300	BESEQ	3	BESPEC	Specimen Type	PERIPHERAL BLOOD	PUBLIC SOURCE	
GSE3365	BE	IBD-00301	BESEQ	1	BESPEC	Specimen Type	RNA	PUBLIC SOURCE	
GSE3365	BE	IBD-00301	BESEQ	2	BESPEC	Specimen Type	PERIPHERAL BLOOD MONONUCLEAR CELL	PUBLIC SOURCE	
GSE3365	BE	IBD-00301	BESEQ	3	BESPEC	Specimen Type	PERIPHERAL BLOOD	PUBLIC SOURCE	
E-MEXP-2083	BE	IBD-00302	BESEQ	1	BESPEC	Specimen Type	RNA	PUBLIC SOURCE	
E-MEXP-2083	BE	IBD-00302	BESEQ	2	UCSTATUS	Ulcerative Colitis Status	INACTIVE ULCERATIVE COLITIS	PUBLIC SOURCE	
E-MEXP-2083	BE	IBD-00302	BESEQ	2	BESPEC	Specimen Type	COLON	PUBLIC SOURCE	
GSE3365	BE	IBD-00303	BESEQ	1	BESPEC	Specimen Type	RNA	PUBLIC SOURCE	
GSE3365	BE	IBD-00303	BESEQ	2	BESPEC	Specimen Type	PERIPHERAL BLOOD MONONUCLEAR CELL	PUBLIC SOURCE	
GSE3365	BE	IBD-00303	BESEQ	3	BESPEC	Specimen Type	PERIPHERAL BLOOD	PUBLIC SOURCE	
E-MEXP-2083	BE	IBD-00304	BESEQ	1	BESPEC	Specimen Type	RNA	PUBLIC SOURCE	
E-MEXP-2083	BE	IBD-00304	BESEQ	2	UCSTATUS	Ulcerative Colitis Status	ACTIVE ULCERATIVE COLITIS	PUBLIC SOURCE	
E-MEXP-2083	BE	IBD-00304	BESEQ	2	BESPEC	Specimen Type	COLON	PUBLIC SOURCE	
GSE3365	BE	IBD-00305	BESEQ	1	BESPEC	Specimen Type	RNA	PUBLIC SOURCE	
GSE3365	BE	IBD-00305	BESEQ	2	BESPEC	Specimen Type	PERIPHERAL BLOOD MONONUCLEAR CELL	PUBLIC SOURCE	
GSE3365	BE	IBD-00305	BESEQ	3	BESPEC	Specimen Type	PERIPHERAL BLOOD	PUBLIC SOURCE	
E-MEXP-2083	BE	IBD-00306	BESEQ	1	BESPEC	Specimen Type	RNA	PUBLIC SOURCE	
E-MEXP-2083	BE	IBD-00306	BESEQ	2	UCSTATUS	Ulcerative Colitis Status	INACTIVE ULCERATIVE COLITIS	PUBLIC SOURCE	
E-MEXP-2083	BE	IBD-00306	BESEQ	2	BESPEC	Specimen Type	COLON	PUBLIC SOURCE	
GSE3365	BE	IBD-00307	BESEQ	1	BESPEC	Specimen Type	RNA	PUBLIC SOURCE	
GSE3365	BE	IBD-00307	BESEQ	2	BESPEC	Specimen Type	PERIPHERAL BLOOD MONONUCLEAR CELL	PUBLIC SOURCE	
GSE3365	BE	IBD-00307	BESEQ	3	BESPEC	Specimen Type	PERIPHERAL BLOOD	PUBLIC SOURCE	
GSE3365	BE	IBD-00309	BESEQ	1	BESPEC	Specimen Type	RNA	PUBLIC SOURCE	
GSE3365	BE	IBD-00309	BESEQ	2	BESPEC	Specimen Type	PERIPHERAL BLOOD MONONUCLEAR CELL	PUBLIC SOURCE	
GSE3365	BE	IBD-00309	BESEQ	3	BESPEC	Specimen Type	PERIPHERAL BLOOD	PUBLIC SOURCE	
E-MEXP-2083	BE	IBD-00310	BESEQ	1	BESPEC	Specimen Type	RNA	PUBLIC SOURCE	
E-MEXP-2083	BE	IBD-00310	BESEQ	2	UCSTATUS	Ulcerative Colitis Status	ACTIVE ULCERATIVE COLITIS	PUBLIC SOURCE	
E-MEXP-2083	BE	IBD-00310	BESEQ	2	BESPEC	Specimen Type	COLON	PUBLIC SOURCE	
GSE3365	BE	IBD-00311	BESEQ	1	BESPEC	Specimen Type	RNA	PUBLIC SOURCE	
GSE3365	BE	IBD-00311	BESEQ	2	BESPEC	Specimen Type	PERIPHERAL BLOOD MONONUCLEAR CELL	PUBLIC SOURCE	
GSE3365	BE	IBD-00311	BESEQ	3	BESPEC	Specimen Type	PERIPHERAL BLOOD	PUBLIC SOURCE	
GSE3365	BE	IBD-00313	BESEQ	1	BESPEC	Specimen Type	RNA	PUBLIC SOURCE	
GSE3365	BE	IBD-00313	BESEQ	2	BESPEC	Specimen Type	PERIPHERAL BLOOD MONONUCLEAR CELL	PUBLIC SOURCE	
GSE3365	BE	IBD-00313	BESEQ	3	BESPEC	Specimen Type	PERIPHERAL BLOOD	PUBLIC SOURCE	
E-MEXP-2083	BE	IBD-00314	BESEQ	1	BESPEC	Specimen Type	RNA	PUBLIC SOURCE	
E-MEXP-2083	BE	IBD-00314	BESEQ	2	UCSTATUS	Ulcerative Colitis Status	ACTIVE ULCERATIVE COLITIS	PUBLIC SOURCE	
E-MEXP-2083	BE	IBD-00314	BESEQ	2	BESPEC	Specimen Type	COLON	PUBLIC SOURCE	
GSE3365	BE	IBD-00315	BESEQ	1	BESPEC	Specimen Type	RNA	PUBLIC SOURCE	
GSE3365	BE	IBD-00315	BESEQ	2	BESPEC	Specimen Type	PERIPHERAL BLOOD MONONUCLEAR CELL	PUBLIC SOURCE	
GSE3365	BE	IBD-00315	BESEQ	3	BESPEC	Specimen Type	PERIPHERAL BLOOD	PUBLIC SOURCE	
GSE3365	BE	IBD-00317	BESEQ	1	BESPEC	Specimen Type	RNA	PUBLIC SOURCE	
GSE3365	BE	IBD-00317	BESEQ	2	BESPEC	Specimen Type	PERIPHERAL BLOOD MONONUCLEAR CELL	PUBLIC SOURCE	
GSE3365	BE	IBD-00317	BESEQ	3	BESPEC	Specimen Type	PERIPHERAL BLOOD	PUBLIC SOURCE	
GSE3365	BE	IBD-00319	BESEQ	1	BESPEC	Specimen Type	RNA	PUBLIC SOURCE	
GSE3365	BE	IBD-00319	BESEQ	2	BESPEC	Specimen Type	PERIPHERAL BLOOD MONONUCLEAR CELL	PUBLIC SOURCE	
GSE3365	BE	IBD-00319	BESEQ	3	BESPEC	Specimen Type	PERIPHERAL BLOOD	PUBLIC SOURCE	
GSE3365	BE	IBD-00321	BESEQ	1	BESPEC	Specimen Type	RNA	PUBLIC SOURCE	
GSE3365	BE	IBD-00321	BESEQ	2	BESPEC	Specimen Type	PERIPHERAL BLOOD MONONUCLEAR CELL	PUBLIC SOURCE	
GSE3365	BE	IBD-00321	BESEQ	3	BESPEC	Specimen Type	PERIPHERAL BLOOD	PUBLIC SOURCE	
E-MEXP-2083	BE	IBD-00322	BESEQ	1	BESPEC	Specimen Type	RNA	PUBLIC SOURCE	
E-MEXP-2083	BE	IBD-00322	BESEQ	2	UCSTATUS	Ulcerative Colitis Status	INACTIVE ULCERATIVE COLITIS	PUBLIC SOURCE	
E-MEXP-2083	BE	IBD-00322	BESEQ	2	BESPEC	Specimen Type	COLON	PUBLIC SOURCE	
GSE3365	BE	IBD-00323	BESEQ	1	BESPEC	Specimen Type	RNA	PUBLIC SOURCE	
GSE3365	BE	IBD-00323	BESEQ	2	BESPEC	Specimen Type	PERIPHERAL BLOOD MONONUCLEAR CELL	PUBLIC SOURCE	
GSE3365	BE	IBD-00323	BESEQ	3	BESPEC	Specimen Type	PERIPHERAL BLOOD	PUBLIC SOURCE	
GSE3365	BE	IBD-00325	BESEQ	1	BESPEC	Specimen Type	RNA	PUBLIC SOURCE	
GSE3365	BE	IBD-00325	BESEQ	2	BESPEC	Specimen Type	PERIPHERAL BLOOD MONONUCLEAR CELL	PUBLIC SOURCE	
GSE3365	BE	IBD-00325	BESEQ	3	BESPEC	Specimen Type	PERIPHERAL BLOOD	PUBLIC SOURCE	
GSE3365	BE	IBD-00326	BESEQ	1	BESPEC	Specimen Type	RNA	PUBLIC SOURCE	
GSE3365	BE	IBD-00326	BESEQ	2	BESPEC	Specimen Type	PERIPHERAL BLOOD MONONUCLEAR CELL	PUBLIC SOURCE	
GSE3365	BE	IBD-00326	BESEQ	3	BESPEC	Specimen Type	PERIPHERAL BLOOD	PUBLIC SOURCE	
GSE3365	BE	IBD-00327	BESEQ	1	BESPEC	Specimen Type	RNA	PUBLIC SOURCE	
GSE3365	BE	IBD-00327	BESEQ	2	BESPEC	Specimen Type	PERIPHERAL BLOOD MONONUCLEAR CELL	PUBLIC SOURCE	
GSE3365	BE	IBD-00327	BESEQ	3	BESPEC	Specimen Type	PERIPHERAL BLOOD	PUBLIC SOURCE	
GSE3365	BE	IBD-00328	BESEQ	1	BESPEC	Specimen Type	RNA	PUBLIC SOURCE	
GSE3365	BE	IBD-00328	BESEQ	2	BESPEC	Specimen Type	PERIPHERAL BLOOD MONONUCLEAR CELL	PUBLIC SOURCE	
GSE3365	BE	IBD-00328	BESEQ	3	BESPEC	Specimen Type	PERIPHERAL BLOOD	PUBLIC SOURCE	
GSE3365	BE	IBD-00329	BESEQ	1	BESPEC	Specimen Type	RNA	PUBLIC SOURCE	
GSE3365	BE	IBD-00329	BESEQ	2	BESPEC	Specimen Type	PERIPHERAL BLOOD MONONUCLEAR CELL	PUBLIC SOURCE	
GSE3365	BE	IBD-00329	BESEQ	3	BESPEC	Specimen Type	PERIPHERAL BLOOD	PUBLIC SOURCE	
E-MTAB-184	BE	IBD-00330	BESEQ	1	BESPEC	Specimen Type	RNA	PUBLIC SOURCE	
E-MTAB-184	BE	IBD-00330	BESEQ	2	UCSTATUS	Ulcerative Colitis Status	ACTIVE ULCERATIVE COLITIS	PUBLIC SOURCE	
E-MTAB-184	BE	IBD-00330	BESEQ	2	BESPEC	Specimen Type	COLON	PUBLIC SOURCE	
GSE3365	BE	IBD-00331	BESEQ	1	BESPEC	Specimen Type	RNA	PUBLIC SOURCE	
GSE3365	BE	IBD-00331	BESEQ	2	BESPEC	Specimen Type	PERIPHERAL BLOOD MONONUCLEAR CELL	PUBLIC SOURCE	
GSE3365	BE	IBD-00331	BESEQ	3	BESPEC	Specimen Type	PERIPHERAL BLOOD	PUBLIC SOURCE	
GSE3365	BE	IBD-00332	BESEQ	1	BESPEC	Specimen Type	RNA	PUBLIC SOURCE	
GSE3365	BE	IBD-00332	BESEQ	2	BESPEC	Specimen Type	PERIPHERAL BLOOD MONONUCLEAR CELL	PUBLIC SOURCE	
GSE3365	BE	IBD-00332	BESEQ	3	BESPEC	Specimen Type	PERIPHERAL BLOOD	PUBLIC SOURCE	
GSE3365	BE	IBD-00333	BESEQ	1	BESPEC	Specimen Type	RNA	PUBLIC SOURCE	
GSE3365	BE	IBD-00333	BESEQ	2	BESPEC	Specimen Type	PERIPHERAL BLOOD MONONUCLEAR CELL	PUBLIC SOURCE	
GSE3365	BE	IBD-00333	BESEQ	3	BESPEC	Specimen Type	PERIPHERAL BLOOD	PUBLIC SOURCE	
E-MTAB-184	BE	IBD-00334	BESEQ	1	BESPEC	Specimen Type	RNA	PUBLIC SOURCE	
E-MTAB-184	BE	IBD-00334	BESEQ	2	UCSTATUS	Ulcerative Colitis Status	INACTIVE ULCERATIVE COLITIS	PUBLIC SOURCE	
E-MTAB-184	BE	IBD-00334	BESEQ	2	BESPEC	Specimen Type	COLON	PUBLIC SOURCE	
E-MTAB-184	BE	IBD-00337	BESEQ	1	BESPEC	Specimen Type	RNA	PUBLIC SOURCE	
E-MTAB-184	BE	IBD-00337	BESEQ	2	UCSTATUS	Ulcerative Colitis Status	INACTIVE ULCERATIVE COLITIS	PUBLIC SOURCE	
E-MTAB-184	BE	IBD-00337	BESEQ	2	BESPEC	Specimen Type	COLON	PUBLIC SOURCE	
E-MTAB-184	BE	IBD-00342	BESEQ	1	BESPEC	Specimen Type	RNA	PUBLIC SOURCE	
E-MTAB-184	BE	IBD-00342	BESEQ	2	UCSTATUS	Ulcerative Colitis Status	INACTIVE ULCERATIVE COLITIS	PUBLIC SOURCE	
E-MTAB-184	BE	IBD-00342	BESEQ	2	BESPEC	Specimen Type	COLON	PUBLIC SOURCE	
E-MTAB-184	BE	IBD-00345	BESEQ	1	BESPEC	Specimen Type	RNA	PUBLIC SOURCE	
E-MTAB-184	BE	IBD-00345	BESEQ	2	UCSTATUS	Ulcerative Colitis Status	ACTIVE ULCERATIVE COLITIS	PUBLIC SOURCE	
E-MTAB-184	BE	IBD-00345	BESEQ	2	BESPEC	Specimen Type	COLON	PUBLIC SOURCE	
E-MTAB-184	BE	IBD-00406	BESEQ	1	BESPEC	Specimen Type	RNA	PUBLIC SOURCE	
E-MTAB-184	BE	IBD-00406	BESEQ	2	UCSTATUS	Ulcerative Colitis Status	INACTIVE ULCERATIVE COLITIS	PUBLIC SOURCE	
E-MTAB-184	BE	IBD-00406	BESEQ	2	BESPEC	Specimen Type	COLON	PUBLIC SOURCE	
E-MTAB-184	BE	IBD-00409	BESEQ	1	BESPEC	Specimen Type	RNA	PUBLIC SOURCE	
E-MTAB-184	BE	IBD-00409	BESEQ	2	UCSTATUS	Ulcerative Colitis Status	INACTIVE ULCERATIVE COLITIS	PUBLIC SOURCE	
E-MTAB-184	BE	IBD-00409	BESEQ	2	BESPEC	Specimen Type	COLON	PUBLIC SOURCE	
E-MTAB-184	BE	IBD-00410	BESEQ	1	BESPEC	Specimen Type	RNA	PUBLIC SOURCE	
E-MTAB-184	BE	IBD-00410	BESEQ	2	UCSTATUS	Ulcerative Colitis Status	INACTIVE ULCERATIVE COLITIS	PUBLIC SOURCE	
E-MTAB-184	BE	IBD-00410	BESEQ	2	BESPEC	Specimen Type	COLON	PUBLIC SOURCE	
E-MTAB-184	BE	IBD-00411	BESEQ	1	BESPEC	Specimen Type	RNA	PUBLIC SOURCE	
E-MTAB-184	BE	IBD-00411	BESEQ	2	UCSTATUS	Ulcerative Colitis Status	ACTIVE ULCERATIVE COLITIS	PUBLIC SOURCE	
E-MTAB-184	BE	IBD-00411	BESEQ	2	BESPEC	Specimen Type	COLON	PUBLIC SOURCE	
E-MTAB-184	BE	IBD-00412	BESEQ	1	BESPEC	Specimen Type	RNA	PUBLIC SOURCE	
E-MTAB-184	BE	IBD-00412	BESEQ	2	UCSTATUS	Ulcerative Colitis Status	INACTIVE ULCERATIVE COLITIS	PUBLIC SOURCE	
E-MTAB-184	BE	IBD-00412	BESEQ	2	BESPEC	Specimen Type	COLON	PUBLIC SOURCE	
E-MTAB-184	BE	IBD-00413	BESEQ	1	BESPEC	Specimen Type	RNA	PUBLIC SOURCE	
E-MTAB-184	BE	IBD-00413	BESEQ	2	UCSTATUS	Ulcerative Colitis Status	INACTIVE ULCERATIVE COLITIS	PUBLIC SOURCE	
E-MTAB-184	BE	IBD-00413	BESEQ	2	BESPEC	Specimen Type	COLON	PUBLIC SOURCE	
E-MTAB-184	BE	IBD-00414	BESEQ	1	BESPEC	Specimen Type	RNA	PUBLIC SOURCE	
E-MTAB-184	BE	IBD-00414	BESEQ	2	UCSTATUS	Ulcerative Colitis Status	INACTIVE ULCERATIVE COLITIS	PUBLIC SOURCE	
E-MTAB-184	BE	IBD-00414	BESEQ	2	BESPEC	Specimen Type	COLON	PUBLIC SOURCE	
E-MTAB-184	BE	IBD-00415	BESEQ	1	BESPEC	Specimen Type	RNA	PUBLIC SOURCE	
E-MTAB-184	BE	IBD-00415	BESEQ	2	UCSTATUS	Ulcerative Colitis Status	INACTIVE ULCERATIVE COLITIS	PUBLIC SOURCE	
E-MTAB-184	BE	IBD-00415	BESEQ	2	BESPEC	Specimen Type	COLON	PUBLIC SOURCE	
E-MTAB-184	BE	IBD-00416	BESEQ	1	BESPEC	Specimen Type	RNA	PUBLIC SOURCE	
E-MTAB-184	BE	IBD-00416	BESEQ	2	UCSTATUS	Ulcerative Colitis Status	INACTIVE ULCERATIVE COLITIS	PUBLIC SOURCE	
E-MTAB-184	BE	IBD-00416	BESEQ	2	BESPEC	Specimen Type	COLON	PUBLIC SOURCE	
E-MTAB-184	BE	IBD-00417	BESEQ	1	BESPEC	Specimen Type	RNA	PUBLIC SOURCE	
E-MTAB-184	BE	IBD-00417	BESEQ	2	UCSTATUS	Ulcerative Colitis Status	INACTIVE ULCERATIVE COLITIS	PUBLIC SOURCE	
E-MTAB-184	BE	IBD-00417	BESEQ	2	BESPEC	Specimen Type	COLON	PUBLIC SOURCE	
E-MTAB-184	BE	IBD-00418	BESEQ	1	BESPEC	Specimen Type	RNA	PUBLIC SOURCE	
E-MTAB-184	BE	IBD-00418	BESEQ	2	UCSTATUS	Ulcerative Colitis Status	INACTIVE ULCERATIVE COLITIS	PUBLIC SOURCE	
E-MTAB-184	BE	IBD-00418	BESEQ	2	BESPEC	Specimen Type	COLON	PUBLIC SOURCE	
E-MTAB-184	BE	IBD-00419	BESEQ	1	BESPEC	Specimen Type	RNA	PUBLIC SOURCE	
E-MTAB-184	BE	IBD-00419	BESEQ	2	UCSTATUS	Ulcerative Colitis Status	INACTIVE ULCERATIVE COLITIS	PUBLIC SOURCE	
E-MTAB-184	BE	IBD-00419	BESEQ	2	BESPEC	Specimen Type	COLON	PUBLIC SOURCE	
E-MTAB-184	BE	IBD-00420	BESEQ	1	BESPEC	Specimen Type	RNA	PUBLIC SOURCE	
E-MTAB-184	BE	IBD-00420	BESEQ	2	UCSTATUS	Ulcerative Colitis Status	INACTIVE ULCERATIVE COLITIS	PUBLIC SOURCE	
E-MTAB-184	BE	IBD-00420	BESEQ	2	BESPEC	Specimen Type	COLON	PUBLIC SOURCE	
E-MTAB-184	BE	IBD-00421	BESEQ	1	BESPEC	Specimen Type	RNA	PUBLIC SOURCE	
E-MTAB-184	BE	IBD-00421	BESEQ	2	UCSTATUS	Ulcerative Colitis Status	ACTIVE ULCERATIVE COLITIS	PUBLIC SOURCE	
E-MTAB-184	BE	IBD-00421	BESEQ	2	BESPEC	Specimen Type	COLON	PUBLIC SOURCE	
E-MTAB-184	BE	IBD-00422	BESEQ	1	BESPEC	Specimen Type	RNA	PUBLIC SOURCE	
E-MTAB-184	BE	IBD-00422	BESEQ	2	UCSTATUS	Ulcerative Colitis Status	INACTIVE ULCERATIVE COLITIS	PUBLIC SOURCE	
E-MTAB-184	BE	IBD-00422	BESEQ	2	BESPEC	Specimen Type	COLON	PUBLIC SOURCE	
E-MTAB-184	BE	IBD-00423	BESEQ	1	BESPEC	Specimen Type	RNA	PUBLIC SOURCE	
E-MTAB-184	BE	IBD-00423	BESEQ	2	UCSTATUS	Ulcerative Colitis Status	INACTIVE ULCERATIVE COLITIS	PUBLIC SOURCE	
E-MTAB-184	BE	IBD-00423	BESEQ	2	BESPEC	Specimen Type	COLON	PUBLIC SOURCE	
E-MTAB-184	BE	IBD-00424	BESEQ	1	BESPEC	Specimen Type	RNA	PUBLIC SOURCE	
E-MTAB-184	BE	IBD-00424	BESEQ	2	UCSTATUS	Ulcerative Colitis Status	ACTIVE ULCERATIVE COLITIS	PUBLIC SOURCE	
E-MTAB-184	BE	IBD-00424	BESEQ	2	BESPEC	Specimen Type	COLON	PUBLIC SOURCE	
E-MTAB-184	BE	IBD-00425	BESEQ	1	BESPEC	Specimen Type	RNA	PUBLIC SOURCE	
E-MTAB-184	BE	IBD-00425	BESEQ	2	UCSTATUS	Ulcerative Colitis Status	ACTIVE ULCERATIVE COLITIS	PUBLIC SOURCE	
E-MTAB-184	BE	IBD-00425	BESEQ	2	BESPEC	Specimen Type	COLON	PUBLIC SOURCE	
E-MTAB-184	BE	IBD-00427	BESEQ	1	BESPEC	Specimen Type	RNA	PUBLIC SOURCE	
E-MTAB-184	BE	IBD-00427	BESEQ	2	UCSTATUS	Ulcerative Colitis Status	INACTIVE ULCERATIVE COLITIS	PUBLIC SOURCE	
E-MTAB-184	BE	IBD-00427	BESEQ	2	BESPEC	Specimen Type	COLON	PUBLIC SOURCE	
E-MTAB-184	BE	IBD-00429	BESEQ	1	BESPEC	Specimen Type	RNA	PUBLIC SOURCE	
E-MTAB-184	BE	IBD-00429	BESEQ	2	UCSTATUS	Ulcerative Colitis Status	INACTIVE ULCERATIVE COLITIS	PUBLIC SOURCE	
E-MTAB-184	BE	IBD-00429	BESEQ	2	BESPEC	Specimen Type	COLON	PUBLIC SOURCE	
E-MTAB-184	BE	IBD-00431	BESEQ	1	BESPEC	Specimen Type	RNA	PUBLIC SOURCE	
E-MTAB-184	BE	IBD-00431	BESEQ	2	UCSTATUS	Ulcerative Colitis Status	INACTIVE ULCERATIVE COLITIS	PUBLIC SOURCE	
E-MTAB-184	BE	IBD-00431	BESEQ	2	BESPEC	Specimen Type	COLON	PUBLIC SOURCE	
E-MTAB-184	BE	IBD-00434	BESEQ	1	BESPEC	Specimen Type	RNA	PUBLIC SOURCE	
E-MTAB-184	BE	IBD-00434	BESEQ	2	UCSTATUS	Ulcerative Colitis Status	ACTIVE ULCERATIVE COLITIS	PUBLIC SOURCE	
E-MTAB-184	BE	IBD-00434	BESEQ	2	BESPEC	Specimen Type	COLON	PUBLIC SOURCE	
E-MTAB-184	BE	IBD-00436	BESEQ	1	BESPEC	Specimen Type	RNA	PUBLIC SOURCE	
E-MTAB-184	BE	IBD-00436	BESEQ	2	UCSTATUS	Ulcerative Colitis Status	ACTIVE ULCERATIVE COLITIS	PUBLIC SOURCE	
E-MTAB-184	BE	IBD-00436	BESEQ	2	BESPEC	Specimen Type	COLON	PUBLIC SOURCE	
E-MTAB-184	BE	IBD-00437	BESEQ	1	BESPEC	Specimen Type	RNA	PUBLIC SOURCE	
E-MTAB-184	BE	IBD-00437	BESEQ	2	UCSTATUS	Ulcerative Colitis Status	INACTIVE ULCERATIVE COLITIS	PUBLIC SOURCE	
E-MTAB-184	BE	IBD-00437	BESEQ	2	BESPEC	Specimen Type	COLON	PUBLIC SOURCE	
E-MTAB-184	BE	IBD-00438	BESEQ	1	BESPEC	Specimen Type	RNA	PUBLIC SOURCE	
E-MTAB-184	BE	IBD-00438	BESEQ	2	UCSTATUS	Ulcerative Colitis Status	INACTIVE ULCERATIVE COLITIS	PUBLIC SOURCE	
E-MTAB-184	BE	IBD-00438	BESEQ	2	BESPEC	Specimen Type	COLON	PUBLIC SOURCE	
E-MTAB-184	BE	IBD-00439	BESEQ	1	BESPEC	Specimen Type	RNA	PUBLIC SOURCE	
E-MTAB-184	BE	IBD-00439	BESEQ	2	UCSTATUS	Ulcerative Colitis Status	INACTIVE ULCERATIVE COLITIS	PUBLIC SOURCE	
E-MTAB-184	BE	IBD-00439	BESEQ	2	BESPEC	Specimen Type	COLON	PUBLIC SOURCE	
E-MTAB-184	BE	IBD-00440	BESEQ	1	BESPEC	Specimen Type	RNA	PUBLIC SOURCE	
E-MTAB-184	BE	IBD-00440	BESEQ	2	UCSTATUS	Ulcerative Colitis Status	INACTIVE ULCERATIVE COLITIS	PUBLIC SOURCE	
E-MTAB-184	BE	IBD-00440	BESEQ	2	BESPEC	Specimen Type	COLON	PUBLIC SOURCE	
E-MTAB-184	BE	IBD-00441	BESEQ	1	BESPEC	Specimen Type	RNA	PUBLIC SOURCE	
E-MTAB-184	BE	IBD-00441	BESEQ	2	UCSTATUS	Ulcerative Colitis Status	ACTIVE ULCERATIVE COLITIS	PUBLIC SOURCE	
E-MTAB-184	BE	IBD-00441	BESEQ	2	BESPEC	Specimen Type	COLON	PUBLIC SOURCE	
E-MTAB-184	BE	IBD-00442	BESEQ	1	BESPEC	Specimen Type	RNA	PUBLIC SOURCE	
E-MTAB-184	BE	IBD-00442	BESEQ	2	UCSTATUS	Ulcerative Colitis Status	ACTIVE ULCERATIVE COLITIS	PUBLIC SOURCE	
E-MTAB-184	BE	IBD-00442	BESEQ	2	BESPEC	Specimen Type	COLON	PUBLIC SOURCE	
E-MTAB-184	BE	IBD-00443	BESEQ	1	BESPEC	Specimen Type	RNA	PUBLIC SOURCE	
E-MTAB-184	BE	IBD-00443	BESEQ	2	UCSTATUS	Ulcerative Colitis Status	INACTIVE ULCERATIVE COLITIS	PUBLIC SOURCE	
E-MTAB-184	BE	IBD-00443	BESEQ	2	BESPEC	Specimen Type	COLON	PUBLIC SOURCE	
E-MTAB-184	BE	IBD-00444	BESEQ	1	BESPEC	Specimen Type	RNA	PUBLIC SOURCE	
E-MTAB-184	BE	IBD-00444	BESEQ	2	UCSTATUS	Ulcerative Colitis Status	INACTIVE ULCERATIVE COLITIS	PUBLIC SOURCE	
E-MTAB-184	BE	IBD-00444	BESEQ	2	BESPEC	Specimen Type	COLON	PUBLIC SOURCE	
E-MTAB-184	BE	IBD-00445	BESEQ	1	BESPEC	Specimen Type	RNA	PUBLIC SOURCE	
E-MTAB-184	BE	IBD-00445	BESEQ	2	UCSTATUS	Ulcerative Colitis Status	INACTIVE ULCERATIVE COLITIS	PUBLIC SOURCE	
E-MTAB-184	BE	IBD-00445	BESEQ	2	BESPEC	Specimen Type	COLON	PUBLIC SOURCE	
E-MTAB-184	BE	IBD-00446	BESEQ	1	BESPEC	Specimen Type	RNA	PUBLIC SOURCE	
E-MTAB-184	BE	IBD-00446	BESEQ	2	UCSTATUS	Ulcerative Colitis Status	ACTIVE ULCERATIVE COLITIS	PUBLIC SOURCE	
E-MTAB-184	BE	IBD-00446	BESEQ	2	BESPEC	Specimen Type	COLON	PUBLIC SOURCE	
E-MTAB-184	BE	IBD-00447	BESEQ	1	BESPEC	Specimen Type	RNA	PUBLIC SOURCE	
E-MTAB-184	BE	IBD-00447	BESEQ	2	UCSTATUS	Ulcerative Colitis Status	ACTIVE ULCERATIVE COLITIS	PUBLIC SOURCE	
E-MTAB-184	BE	IBD-00447	BESEQ	2	BESPEC	Specimen Type	COLON	PUBLIC SOURCE	
E-MTAB-184	BE	IBD-00448	BESEQ	1	BESPEC	Specimen Type	RNA	PUBLIC SOURCE	
E-MTAB-184	BE	IBD-00448	BESEQ	2	UCSTATUS	Ulcerative Colitis Status	ACTIVE ULCERATIVE COLITIS	PUBLIC SOURCE	
E-MTAB-184	BE	IBD-00448	BESEQ	2	BESPEC	Specimen Type	COLON	PUBLIC SOURCE	
E-MTAB-184	BE	IBD-00449	BESEQ	1	BESPEC	Specimen Type	RNA	PUBLIC SOURCE	
E-MTAB-184	BE	IBD-00449	BESEQ	2	UCSTATUS	Ulcerative Colitis Status	ACTIVE ULCERATIVE COLITIS	PUBLIC SOURCE	
E-MTAB-184	BE	IBD-00449	BESEQ	2	BESPEC	Specimen Type	COLON	PUBLIC SOURCE	
E-MTAB-184	BE	IBD-00450	BESEQ	1	BESPEC	Specimen Type	RNA	PUBLIC SOURCE	
E-MTAB-184	BE	IBD-00450	BESEQ	2	UCSTATUS	Ulcerative Colitis Status	ACTIVE ULCERATIVE COLITIS	PUBLIC SOURCE	
E-MTAB-184	BE	IBD-00450	BESEQ	2	BESPEC	Specimen Type	COLON	PUBLIC SOURCE	
E-MTAB-184	BE	IBD-00451	BESEQ	1	BESPEC	Specimen Type	RNA	PUBLIC SOURCE	
E-MTAB-184	BE	IBD-00451	BESEQ	2	UCSTATUS	Ulcerative Colitis Status	INACTIVE ULCERATIVE COLITIS	PUBLIC SOURCE	
E-MTAB-184	BE	IBD-00451	BESEQ	2	BESPEC	Specimen Type	COLON	PUBLIC SOURCE	
E-MTAB-184	BE	IBD-00452	BESEQ	1	BESPEC	Specimen Type	RNA	PUBLIC SOURCE	
E-MTAB-184	BE	IBD-00452	BESEQ	2	UCSTATUS	Ulcerative Colitis Status	INACTIVE ULCERATIVE COLITIS	PUBLIC SOURCE	
E-MTAB-184	BE	IBD-00452	BESEQ	2	BESPEC	Specimen Type	COLON	PUBLIC SOURCE	
E-MTAB-184	BE	IBD-00453	BESEQ	1	BESPEC	Specimen Type	RNA	PUBLIC SOURCE	
E-MTAB-184	BE	IBD-00453	BESEQ	2	UCSTATUS	Ulcerative Colitis Status	INACTIVE ULCERATIVE COLITIS	PUBLIC SOURCE	
E-MTAB-184	BE	IBD-00453	BESEQ	2	BESPEC	Specimen Type	COLON	PUBLIC SOURCE	
E-MTAB-184	BE	IBD-00454	BESEQ	1	BESPEC	Specimen Type	RNA	PUBLIC SOURCE	
E-MTAB-184	BE	IBD-00454	BESEQ	2	UCSTATUS	Ulcerative Colitis Status	ACTIVE ULCERATIVE COLITIS	PUBLIC SOURCE	
E-MTAB-184	BE	IBD-00454	BESEQ	2	BESPEC	Specimen Type	COLON	PUBLIC SOURCE	
E-MTAB-184	BE	IBD-00455	BESEQ	1	BESPEC	Specimen Type	RNA	PUBLIC SOURCE	
E-MTAB-184	BE	IBD-00455	BESEQ	2	UCSTATUS	Ulcerative Colitis Status	INACTIVE ULCERATIVE COLITIS	PUBLIC SOURCE	
E-MTAB-184	BE	IBD-00455	BESEQ	2	BESPEC	Specimen Type	COLON	PUBLIC SOURCE	
E-MTAB-184	BE	IBD-00456	BESEQ	1	BESPEC	Specimen Type	RNA	PUBLIC SOURCE	
E-MTAB-184	BE	IBD-00456	BESEQ	2	UCSTATUS	Ulcerative Colitis Status	INACTIVE ULCERATIVE COLITIS	PUBLIC SOURCE	
E-MTAB-184	BE	IBD-00456	BESEQ	2	BESPEC	Specimen Type	COLON	PUBLIC SOURCE	
E-MTAB-184	BE	IBD-00457	BESEQ	1	BESPEC	Specimen Type	RNA	PUBLIC SOURCE	
E-MTAB-184	BE	IBD-00457	BESEQ	2	UCSTATUS	Ulcerative Colitis Status	INACTIVE ULCERATIVE COLITIS	PUBLIC SOURCE	
E-MTAB-184	BE	IBD-00457	BESEQ	2	BESPEC	Specimen Type	COLON	PUBLIC SOURCE	
E-MTAB-184	BE	IBD-00458	BESEQ	1	BESPEC	Specimen Type	RNA	PUBLIC SOURCE	
E-MTAB-184	BE	IBD-00458	BESEQ	2	UCSTATUS	Ulcerative Colitis Status	ACTIVE ULCERATIVE COLITIS	PUBLIC SOURCE	
E-MTAB-184	BE	IBD-00458	BESEQ	2	BESPEC	Specimen Type	COLON	PUBLIC SOURCE	
E-MTAB-184	BE	IBD-00460	BESEQ	1	BESPEC	Specimen Type	RNA	PUBLIC SOURCE	
E-MTAB-184	BE	IBD-00460	BESEQ	2	UCSTATUS	Ulcerative Colitis Status	ACTIVE ULCERATIVE COLITIS	PUBLIC SOURCE	
E-MTAB-184	BE	IBD-00460	BESEQ	2	BESPEC	Specimen Type	COLON	PUBLIC SOURCE	
E-MTAB-184	BE	IBD-00461	BESEQ	1	BESPEC	Specimen Type	RNA	PUBLIC SOURCE	
E-MTAB-184	BE	IBD-00461	BESEQ	2	UCSTATUS	Ulcerative Colitis Status	ACTIVE ULCERATIVE COLITIS	PUBLIC SOURCE	
E-MTAB-184	BE	IBD-00461	BESEQ	2	BESPEC	Specimen Type	COLON	PUBLIC SOURCE	
E-MTAB-184	BE	IBD-00462	BESEQ	1	BESPEC	Specimen Type	RNA	PUBLIC SOURCE	
E-MTAB-184	BE	IBD-00462	BESEQ	2	UCSTATUS	Ulcerative Colitis Status	INACTIVE ULCERATIVE COLITIS	PUBLIC SOURCE	
E-MTAB-184	BE	IBD-00462	BESEQ	2	BESPEC	Specimen Type	COLON	PUBLIC SOURCE	
E-MTAB-184	BE	IBD-00463	BESEQ	1	BESPEC	Specimen Type	RNA	PUBLIC SOURCE	
E-MTAB-184	BE	IBD-00463	BESEQ	2	UCSTATUS	Ulcerative Colitis Status	ACTIVE ULCERATIVE COLITIS	PUBLIC SOURCE	
E-MTAB-184	BE	IBD-00463	BESEQ	2	BESPEC	Specimen Type	COLON	PUBLIC SOURCE	
E-MTAB-184	BE	IBD-00464	BESEQ	1	BESPEC	Specimen Type	RNA	PUBLIC SOURCE	
E-MTAB-184	BE	IBD-00464	BESEQ	2	UCSTATUS	Ulcerative Colitis Status	ACTIVE ULCERATIVE COLITIS	PUBLIC SOURCE	
E-MTAB-184	BE	IBD-00464	BESEQ	2	BESPEC	Specimen Type	COLON	PUBLIC SOURCE	
E-MTAB-184	BE	IBD-00465	BESEQ	1	BESPEC	Specimen Type	RNA	PUBLIC SOURCE	
E-MTAB-184	BE	IBD-00465	BESEQ	2	UCSTATUS	Ulcerative Colitis Status	INACTIVE ULCERATIVE COLITIS	PUBLIC SOURCE	
E-MTAB-184	BE	IBD-00465	BESEQ	2	BESPEC	Specimen Type	COLON	PUBLIC SOURCE	
E-MTAB-184	BE	IBD-00466	BESEQ	1	BESPEC	Specimen Type	RNA	PUBLIC SOURCE	
E-MTAB-184	BE	IBD-00466	BESEQ	2	UCSTATUS	Ulcerative Colitis Status	ACTIVE ULCERATIVE COLITIS	PUBLIC SOURCE	
E-MTAB-184	BE	IBD-00466	BESEQ	2	BESPEC	Specimen Type	COLON	PUBLIC SOURCE	
E-MTAB-184	BE	IBD-00467	BESEQ	1	BESPEC	Specimen Type	RNA	PUBLIC SOURCE	
E-MTAB-184	BE	IBD-00467	BESEQ	2	UCSTATUS	Ulcerative Colitis Status	INACTIVE ULCERATIVE COLITIS	PUBLIC SOURCE	
E-MTAB-184	BE	IBD-00467	BESEQ	2	BESPEC	Specimen Type	COLON	PUBLIC SOURCE	
E-MTAB-184	BE	IBD-00468	BESEQ	1	BESPEC	Specimen Type	RNA	PUBLIC SOURCE	
E-MTAB-184	BE	IBD-00468	BESEQ	2	UCSTATUS	Ulcerative Colitis Status	INACTIVE ULCERATIVE COLITIS	PUBLIC SOURCE	
E-MTAB-184	BE	IBD-00468	BESEQ	2	BESPEC	Specimen Type	COLON	PUBLIC SOURCE	
GSE37283	BE	IBD-00469	BESEQ	1	BESPEC	Specimen Type	RNA	PUBLIC SOURCE	
GSE37283	BE	IBD-00469	BESEQ	2	UCSTATUS	Ulcerative Colitis Status	INACTIVE ULCERATIVE COLITIS	PUBLIC SOURCE	
GSE37283	BE	IBD-00469	BESEQ	2	BESPEC	Specimen Type	COLON	PUBLIC SOURCE	
E-MTAB-184	BE	IBD-00470	BESEQ	1	BESPEC	Specimen Type	RNA	PUBLIC SOURCE	
E-MTAB-184	BE	IBD-00470	BESEQ	2	UCSTATUS	Ulcerative Colitis Status	ACTIVE ULCERATIVE COLITIS	PUBLIC SOURCE	
E-MTAB-184	BE	IBD-00470	BESEQ	2	BESPEC	Specimen Type	COLON	PUBLIC SOURCE	
GSE37283	BE	IBD-00471	BESEQ	1	BESPEC	Specimen Type	RNA	PUBLIC SOURCE	
GSE37283	BE	IBD-00471	BESEQ	2	UCSTATUS	Ulcerative Colitis Status	INACTIVE ULCERATIVE COLITIS	PUBLIC SOURCE	
GSE37283	BE	IBD-00471	BESEQ	2	BESPEC	Specimen Type	COLON	PUBLIC SOURCE	
E-MTAB-184	BE	IBD-00472	BESEQ	1	BESPEC	Specimen Type	RNA	PUBLIC SOURCE	
E-MTAB-184	BE	IBD-00472	BESEQ	2	UCSTATUS	Ulcerative Colitis Status	INACTIVE ULCERATIVE COLITIS	PUBLIC SOURCE	
E-MTAB-184	BE	IBD-00472	BESEQ	2	BESPEC	Specimen Type	COLON	PUBLIC SOURCE	
GSE37283	BE	IBD-00473	BESEQ	1	BESPEC	Specimen Type	RNA	PUBLIC SOURCE	
GSE37283	BE	IBD-00473	BESEQ	2	UCSTATUS	Ulcerative Colitis Status	INACTIVE ULCERATIVE COLITIS	PUBLIC SOURCE	
GSE37283	BE	IBD-00473	BESEQ	2	BESPEC	Specimen Type	COLON	PUBLIC SOURCE	
GSE37283	BE	IBD-00474	BESEQ	1	BESPEC	Specimen Type	RNA	PUBLIC SOURCE	
GSE37283	BE	IBD-00474	BESEQ	2	UCSTATUS	Ulcerative Colitis Status	INACTIVE ULCERATIVE COLITIS	PUBLIC SOURCE	
GSE37283	BE	IBD-00474	BESEQ	2	BESPEC	Specimen Type	COLON	PUBLIC SOURCE	
E-MTAB-184	BE	IBD-00476	BESEQ	1	BESPEC	Specimen Type	RNA	PUBLIC SOURCE	
E-MTAB-184	BE	IBD-00476	BESEQ	2	UCSTATUS	Ulcerative Colitis Status	ACTIVE ULCERATIVE COLITIS	PUBLIC SOURCE	
E-MTAB-184	BE	IBD-00476	BESEQ	2	BESPEC	Specimen Type	COLON	PUBLIC SOURCE	
GSE37283	BE	IBD-00481	BESEQ	1	BESPEC	Specimen Type	RNA	PUBLIC SOURCE	
GSE37283	BE	IBD-00481	BESEQ	2	BESPEC	Specimen Type	COLON	PUBLIC SOURCE	
GSE37283	BE	IBD-00482	BESEQ	1	BESPEC	Specimen Type	RNA	PUBLIC SOURCE	
GSE37283	BE	IBD-00482	BESEQ	2	BESPEC	Specimen Type	COLON	PUBLIC SOURCE	
GSE37283	BE	IBD-00483	BESEQ	1	BESPEC	Specimen Type	RNA	PUBLIC SOURCE	
GSE37283	BE	IBD-00483	BESEQ	2	BESPEC	Specimen Type	COLON	PUBLIC SOURCE	
GSE37283	BE	IBD-00484	BESEQ	1	BESPEC	Specimen Type	RNA	PUBLIC SOURCE	
GSE37283	BE	IBD-00484	BESEQ	2	BESPEC	Specimen Type	COLON	PUBLIC SOURCE	
GSE37283	BE	IBD-00485	BESEQ	1	BESPEC	Specimen Type	RNA	PUBLIC SOURCE	
GSE37283	BE	IBD-00485	BESEQ	2	BESPEC	Specimen Type	COLON	PUBLIC SOURCE	
GSE37283	BE	IBD-00486	BESEQ	1	BESPEC	Specimen Type	RNA	PUBLIC SOURCE	
GSE37283	BE	IBD-00486	BESEQ	2	BESPEC	Specimen Type	COLON	PUBLIC SOURCE	
GSE37283	BE	IBD-00487	BESEQ	1	BESPEC	Specimen Type	RNA	PUBLIC SOURCE	
GSE37283	BE	IBD-00487	BESEQ	2	BESPEC	Specimen Type	COLON	PUBLIC SOURCE	
GSE37283	BE	IBD-00488	BESEQ	1	BESPEC	Specimen Type	RNA	PUBLIC SOURCE	
GSE37283	BE	IBD-00488	BESEQ	2	BESPEC	Specimen Type	COLON	PUBLIC SOURCE	
GSE37283	BE	IBD-00489	BESEQ	1	BESPEC	Specimen Type	RNA	PUBLIC SOURCE	
GSE37283	BE	IBD-00489	BESEQ	2	BESPEC	Specimen Type	COLON	PUBLIC SOURCE	
GSE37283	BE	IBD-00490	BESEQ	1	BESPEC	Specimen Type	RNA	PUBLIC SOURCE	
GSE37283	BE	IBD-00490	BESEQ	2	BESPEC	Specimen Type	COLON	PUBLIC SOURCE	
GSE37283	BE	IBD-00491	BESEQ	1	BESPEC	Specimen Type	RNA	PUBLIC SOURCE	
GSE37283	BE	IBD-00491	BESEQ	2	BESPEC	Specimen Type	COLON	PUBLIC SOURCE	
GSE3629	BE	IBD-00499	BESEQ	1	BESPEC	Specimen Type	RNA	PUBLIC SOURCE	
GSE3629	BE	IBD-00499	BESEQ	2	BESPEC	Specimen Type	RECTUM	PUBLIC SOURCE	
GSE3629	BE	IBD-00500	BESEQ	1	BESPEC	Specimen Type	RNA	PUBLIC SOURCE	
GSE3629	BE	IBD-00500	BESEQ	2	BESPEC	Specimen Type	RECTUM	PUBLIC SOURCE	
GSE3629	BE	IBD-00501	BESEQ	1	BESPEC	Specimen Type	RNA	PUBLIC SOURCE	
GSE3629	BE	IBD-00501	BESEQ	2	BESPEC	Specimen Type	RECTUM	PUBLIC SOURCE	
GSE3629	BE	IBD-00502	BESEQ	1	BESPEC	Specimen Type	RNA	PUBLIC SOURCE	
GSE3629	BE	IBD-00502	BESEQ	2	BESPEC	Specimen Type	RECTUM	PUBLIC SOURCE	
GSE3629	BE	IBD-00503	BESEQ	1	BESPEC	Specimen Type	RNA	PUBLIC SOURCE	
GSE3629	BE	IBD-00503	BESEQ	2	BESPEC	Specimen Type	RECTUM	PUBLIC SOURCE	
GSE3629	BE	IBD-00504	BESEQ	1	BESPEC	Specimen Type	RNA	PUBLIC SOURCE	
GSE3629	BE	IBD-00504	BESEQ	2	BESPEC	Specimen Type	RECTUM	PUBLIC SOURCE	
GSE3629	BE	IBD-00505	BESEQ	1	BESPEC	Specimen Type	RNA	PUBLIC SOURCE	
GSE3629	BE	IBD-00505	BESEQ	2	BESPEC	Specimen Type	RECTUM	PUBLIC SOURCE	
GSE3629	BE	IBD-00506	BESEQ	1	BESPEC	Specimen Type	RNA	PUBLIC SOURCE	
GSE3629	BE	IBD-00506	BESEQ	2	BESPEC	Specimen Type	RECTUM	PUBLIC SOURCE	
GSE3629	BE	IBD-00507	BESEQ	1	BESPEC	Specimen Type	RNA	PUBLIC SOURCE	
GSE3629	BE	IBD-00507	BESEQ	2	BESPEC	Specimen Type	RECTUM	PUBLIC SOURCE	
GSE3629	BE	IBD-00508	BESEQ	1	BESPEC	Specimen Type	RNA	PUBLIC SOURCE	
GSE3629	BE	IBD-00508	BESEQ	2	BESPEC	Specimen Type	RECTUM	PUBLIC SOURCE	
GSE3629	BE	IBD-00509	BESEQ	1	BESPEC	Specimen Type	RNA	PUBLIC SOURCE	
GSE3629	BE	IBD-00509	BESEQ	2	BESPEC	Specimen Type	RECTUM	PUBLIC SOURCE	
GSE3629	BE	IBD-00510	BESEQ	1	BESPEC	Specimen Type	RNA	PUBLIC SOURCE	
GSE3629	BE	IBD-00510	BESEQ	2	BESPEC	Specimen Type	RECTUM	PUBLIC SOURCE	
GSE3629	BE	IBD-00511	BESEQ	1	BESPEC	Specimen Type	RNA	PUBLIC SOURCE	
GSE3629	BE	IBD-00511	BESEQ	2	BESPEC	Specimen Type	RECTUM	PUBLIC SOURCE	
GSE3629	BE	IBD-00512	BESEQ	1	BESPEC	Specimen Type	RNA	PUBLIC SOURCE	
GSE3629	BE	IBD-00512	BESEQ	2	BESPEC	Specimen Type	RECTUM	PUBLIC SOURCE	
GSE3629	BE	IBD-00513	BESEQ	1	BESPEC	Specimen Type	RNA	PUBLIC SOURCE	
GSE3629	BE	IBD-00513	BESEQ	2	BESPEC	Specimen Type	RECTUM	PUBLIC SOURCE	
GSE3629	BE	IBD-00514	BESEQ	1	BESPEC	Specimen Type	RNA	PUBLIC SOURCE	
GSE3629	BE	IBD-00514	BESEQ	2	BESPEC	Specimen Type	RECTUM	PUBLIC SOURCE	
GSE3629	BE	IBD-00515	BESEQ	1	BESPEC	Specimen Type	RNA	PUBLIC SOURCE	
GSE3629	BE	IBD-00515	BESEQ	2	BESPEC	Specimen Type	RECTUM	PUBLIC SOURCE	
GSE3629	BE	IBD-00516	BESEQ	1	BESPEC	Specimen Type	RNA	PUBLIC SOURCE	
GSE3629	BE	IBD-00516	BESEQ	2	BESPEC	Specimen Type	RECTUM	PUBLIC SOURCE	
GSE3629	BE	IBD-00517	BESEQ	1	BESPEC	Specimen Type	RNA	PUBLIC SOURCE	
GSE3629	BE	IBD-00517	BESEQ	2	BESPEC	Specimen Type	RECTUM	PUBLIC SOURCE	
GSE3629	BE	IBD-00518	BESEQ	1	BESPEC	Specimen Type	RNA	PUBLIC SOURCE	
GSE3629	BE	IBD-00518	BESEQ	2	BESPEC	Specimen Type	RECTUM	PUBLIC SOURCE	
GSE3629	BE	IBD-00519	BESEQ	1	BESPEC	Specimen Type	RNA	PUBLIC SOURCE	
GSE3629	BE	IBD-00519	BESEQ	2	BESPEC	Specimen Type	RECTUM	PUBLIC SOURCE	
GSE3629	BE	IBD-00520	BESEQ	1	BESPEC	Specimen Type	RNA	PUBLIC SOURCE	
GSE3629	BE	IBD-00520	BESEQ	2	BESPEC	Specimen Type	RECTUM	PUBLIC SOURCE	
GSE3629	BE	IBD-00521	BESEQ	1	BESPEC	Specimen Type	RNA	PUBLIC SOURCE	
GSE3629	BE	IBD-00521	BESEQ	2	BESPEC	Specimen Type	RECTUM	PUBLIC SOURCE	
GSE3629	BE	IBD-00522	BESEQ	1	BESPEC	Specimen Type	RNA	PUBLIC SOURCE	
GSE3629	BE	IBD-00522	BESEQ	2	BESPEC	Specimen Type	RECTUM	PUBLIC SOURCE	
GSE3629	BE	IBD-00523	BESEQ	1	BESPEC	Specimen Type	RNA	PUBLIC SOURCE	
GSE3629	BE	IBD-00523	BESEQ	2	BESPEC	Specimen Type	RECTUM	PUBLIC SOURCE	
GSE3629	BE	IBD-00524	BESEQ	1	BESPEC	Specimen Type	RNA	PUBLIC SOURCE	
GSE3629	BE	IBD-00524	BESEQ	2	BESPEC	Specimen Type	RECTUM	PUBLIC SOURCE	
GSE3629	BE	IBD-00525	BESEQ	1	BESPEC	Specimen Type	RNA	PUBLIC SOURCE	
GSE3629	BE	IBD-00525	BESEQ	2	BESPEC	Specimen Type	RECTUM	PUBLIC SOURCE	
GSE3629	BE	IBD-00526	BESEQ	1	BESPEC	Specimen Type	RNA	PUBLIC SOURCE	
GSE3629	BE	IBD-00526	BESEQ	2	BESPEC	Specimen Type	RECTUM	PUBLIC SOURCE	
GSE3629	BE	IBD-00527	BESEQ	1	BESPEC	Specimen Type	RNA	PUBLIC SOURCE	
GSE3629	BE	IBD-00527	BESEQ	2	BESPEC	Specimen Type	RECTUM	PUBLIC SOURCE	
GSE3629	BE	IBD-00528	BESEQ	1	BESPEC	Specimen Type	RNA	PUBLIC SOURCE	
GSE3629	BE	IBD-00528	BESEQ	2	BESPEC	Specimen Type	RECTUM	PUBLIC SOURCE	
GSE3629	BE	IBD-00529	BESEQ	1	BESPEC	Specimen Type	RNA	PUBLIC SOURCE	
GSE3629	BE	IBD-00529	BESEQ	2	BESPEC	Specimen Type	RECTUM	PUBLIC SOURCE	
GSE3629	BE	IBD-00530	BESEQ	1	BESPEC	Specimen Type	RNA	PUBLIC SOURCE	
GSE3629	BE	IBD-00530	BESEQ	2	BESPEC	Specimen Type	RECTUM	PUBLIC SOURCE	
GSE3629	BE	IBD-00531	BESEQ	1	BESPEC	Specimen Type	RNA	PUBLIC SOURCE	
GSE3629	BE	IBD-00531	BESEQ	2	BESPEC	Specimen Type	RECTUM	PUBLIC SOURCE	
GSE3629	BE	IBD-00532	BESEQ	1	BESPEC	Specimen Type	RNA	PUBLIC SOURCE	
GSE3629	BE	IBD-00532	BESEQ	2	BESPEC	Specimen Type	RECTUM	PUBLIC SOURCE	
GSE3629	BE	IBD-00533	BESEQ	1	BESPEC	Specimen Type	RNA	PUBLIC SOURCE	
GSE3629	BE	IBD-00533	BESEQ	2	BESPEC	Specimen Type	RECTUM	PUBLIC SOURCE	
GSE3629	BE	IBD-00534	BESEQ	1	BESPEC	Specimen Type	RNA	PUBLIC SOURCE	
GSE3629	BE	IBD-00534	BESEQ	2	BESPEC	Specimen Type	RECTUM	PUBLIC SOURCE	
GSE3629	BE	IBD-00535	BESEQ	1	BESPEC	Specimen Type	RNA	PUBLIC SOURCE	
GSE3629	BE	IBD-00535	BESEQ	2	BESPEC	Specimen Type	RECTUM	PUBLIC SOURCE	
GSE3629	BE	IBD-00536	BESEQ	1	BESPEC	Specimen Type	RNA	PUBLIC SOURCE	
GSE3629	BE	IBD-00536	BESEQ	2	BESPEC	Specimen Type	RECTUM	PUBLIC SOURCE	
GSE3629	BE	IBD-00537	BESEQ	1	BESPEC	Specimen Type	RNA	PUBLIC SOURCE	
GSE3629	BE	IBD-00537	BESEQ	2	BESPEC	Specimen Type	RECTUM	PUBLIC SOURCE	
GSE3629	BE	IBD-00539	BESEQ	1	BESPEC	Specimen Type	RNA	PUBLIC SOURCE	
GSE3629	BE	IBD-00539	BESEQ	2	BESPEC	Specimen Type	RECTUM	PUBLIC SOURCE	
GSE3629	BE	IBD-00540	BESEQ	1	BESPEC	Specimen Type	RNA	PUBLIC SOURCE	
GSE3629	BE	IBD-00540	BESEQ	2	BESPEC	Specimen Type	RECTUM	PUBLIC SOURCE	
GSE3629	BE	IBD-00541	BESEQ	1	BESPEC	Specimen Type	RNA	PUBLIC SOURCE	
GSE3629	BE	IBD-00541	BESEQ	2	BESPEC	Specimen Type	RECTUM	PUBLIC SOURCE	
GSE3629	BE	IBD-00542	BESEQ	1	BESPEC	Specimen Type	RNA	PUBLIC SOURCE	
GSE3629	BE	IBD-00542	BESEQ	2	BESPEC	Specimen Type	RECTUM	PUBLIC SOURCE	
GSE3629	BE	IBD-00543	BESEQ	1	BESPEC	Specimen Type	RNA	PUBLIC SOURCE	
GSE3629	BE	IBD-00543	BESEQ	2	BESPEC	Specimen Type	RECTUM	PUBLIC SOURCE	
GSE3629	BE	IBD-00544	BESEQ	1	BESPEC	Specimen Type	RNA	PUBLIC SOURCE	
GSE3629	BE	IBD-00544	BESEQ	2	BESPEC	Specimen Type	RECTUM	PUBLIC SOURCE	
GSE3629	BE	IBD-00545	BESEQ	1	BESPEC	Specimen Type	RNA	PUBLIC SOURCE	
GSE3629	BE	IBD-00545	BESEQ	2	BESPEC	Specimen Type	RECTUM	PUBLIC SOURCE	
GSE3629	BE	IBD-00546	BESEQ	1	BESPEC	Specimen Type	RNA	PUBLIC SOURCE	
GSE3629	BE	IBD-00546	BESEQ	2	BESPEC	Specimen Type	RECTUM	PUBLIC SOURCE	
GSE3629	BE	IBD-00547	BESEQ	1	BESPEC	Specimen Type	RNA	PUBLIC SOURCE	
GSE3629	BE	IBD-00547	BESEQ	2	BESPEC	Specimen Type	RECTUM	PUBLIC SOURCE	
GSE3629	BE	IBD-00548	BESEQ	1	BESPEC	Specimen Type	RNA	PUBLIC SOURCE	
GSE3629	BE	IBD-00548	BESEQ	2	BESPEC	Specimen Type	RECTUM	PUBLIC SOURCE	
GSE3629	BE	IBD-00549	BESEQ	1	BESPEC	Specimen Type	RNA	PUBLIC SOURCE	
GSE3629	BE	IBD-00549	BESEQ	2	BESPEC	Specimen Type	RECTUM	PUBLIC SOURCE	
E-MTAB-331	BE	IBD-00550	BESEQ	2	BESPEC	Specimen Type	CD8+ T CELLS	PUBLIC SOURCE	
E-MTAB-331	BE	IBD-00550	BESEQ	3	BESPEC	Specimen Type	PERIPHERAL BLOOD	PUBLIC SOURCE	
GSE3629	BE	IBD-00551	BESEQ	1	BESPEC	Specimen Type	RNA	PUBLIC SOURCE	
GSE3629	BE	IBD-00551	BESEQ	2	BESPEC	Specimen Type	RECTUM	PUBLIC SOURCE	
GSE3629	BE	IBD-00552	BESEQ	1	BESPEC	Specimen Type	RNA	PUBLIC SOURCE	
GSE3629	BE	IBD-00552	BESEQ	2	BESPEC	Specimen Type	RECTUM	PUBLIC SOURCE	
GSE3629	BE	IBD-00553	BESEQ	1	BESPEC	Specimen Type	RNA	PUBLIC SOURCE	
GSE3629	BE	IBD-00553	BESEQ	2	BESPEC	Specimen Type	RECTUM	PUBLIC SOURCE	
GSE21231	BE	IBD-00554	BESEQ	1	BESPEC	Specimen Type	RNA	PUBLIC SOURCE	
GSE21231	BE	IBD-00554	BESEQ	2	BESPEC	Specimen Type	PERIPHERAL BLOOD	PUBLIC SOURCE	
GSE21231	BE	IBD-00555	BESEQ	1	BESPEC	Specimen Type	RNA	PUBLIC SOURCE	
GSE21231	BE	IBD-00555	BESEQ	2	BESPEC	Specimen Type	PERIPHERAL BLOOD	PUBLIC SOURCE	
GSE21231	BE	IBD-00556	BESEQ	1	BESPEC	Specimen Type	RNA	PUBLIC SOURCE	
GSE21231	BE	IBD-00556	BESEQ	2	BESPEC	Specimen Type	PERIPHERAL BLOOD	PUBLIC SOURCE	
GSE21231	BE	IBD-00557	BESEQ	1	BESPEC	Specimen Type	RNA	PUBLIC SOURCE	
GSE21231	BE	IBD-00557	BESEQ	2	BESPEC	Specimen Type	PERIPHERAL BLOOD	PUBLIC SOURCE	
GSE21231	BE	IBD-00558	BESEQ	1	BESPEC	Specimen Type	RNA	PUBLIC SOURCE	
GSE21231	BE	IBD-00558	BESEQ	2	BESPEC	Specimen Type	PERIPHERAL BLOOD	PUBLIC SOURCE	
GSE21231	BE	IBD-00559	BESEQ	1	BESPEC	Specimen Type	RNA	PUBLIC SOURCE	
GSE21231	BE	IBD-00559	BESEQ	2	BESPEC	Specimen Type	PERIPHERAL BLOOD	PUBLIC SOURCE	
GSE21231	BE	IBD-00560	BESEQ	1	BESPEC	Specimen Type	RNA	PUBLIC SOURCE	
GSE21231	BE	IBD-00560	BESEQ	2	BESPEC	Specimen Type	PERIPHERAL BLOOD	PUBLIC SOURCE	
GSE21231	BE	IBD-00561	BESEQ	1	BESPEC	Specimen Type	RNA	PUBLIC SOURCE	
GSE21231	BE	IBD-00561	BESEQ	2	BESPEC	Specimen Type	PERIPHERAL BLOOD	PUBLIC SOURCE	
GSE21231	BE	IBD-00562	BESEQ	1	BESPEC	Specimen Type	RNA	PUBLIC SOURCE	
GSE21231	BE	IBD-00562	BESEQ	2	BESPEC	Specimen Type	PERIPHERAL BLOOD	PUBLIC SOURCE	
GSE21231	BE	IBD-00563	BESEQ	1	BESPEC	Specimen Type	RNA	PUBLIC SOURCE	
GSE21231	BE	IBD-00563	BESEQ	2	BESPEC	Specimen Type	PERIPHERAL BLOOD	PUBLIC SOURCE	
GSE21231	BE	IBD-00564	BESEQ	1	BESPEC	Specimen Type	RNA	PUBLIC SOURCE	
GSE21231	BE	IBD-00564	BESEQ	2	BESPEC	Specimen Type	PERIPHERAL BLOOD	PUBLIC SOURCE	
GSE21231	BE	IBD-00565	BESEQ	1	BESPEC	Specimen Type	RNA	PUBLIC SOURCE	
GSE21231	BE	IBD-00565	BESEQ	2	BESPEC	Specimen Type	PERIPHERAL BLOOD	PUBLIC SOURCE	
GSE21231	BE	IBD-00566	BESEQ	1	BESPEC	Specimen Type	RNA	PUBLIC SOURCE	
GSE21231	BE	IBD-00566	BESEQ	2	BESPEC	Specimen Type	PERIPHERAL BLOOD	PUBLIC SOURCE	
GSE21231	BE	IBD-00567	BESEQ	1	BESPEC	Specimen Type	RNA	PUBLIC SOURCE	
GSE21231	BE	IBD-00567	BESEQ	2	BESPEC	Specimen Type	PERIPHERAL BLOOD	PUBLIC SOURCE	
GSE21231	BE	IBD-00568	BESEQ	1	BESPEC	Specimen Type	RNA	PUBLIC SOURCE	
GSE21231	BE	IBD-00568	BESEQ	2	BESPEC	Specimen Type	PERIPHERAL BLOOD	PUBLIC SOURCE	
GSE21231	BE	IBD-00569	BESEQ	1	BESPEC	Specimen Type	RNA	PUBLIC SOURCE	
GSE21231	BE	IBD-00569	BESEQ	2	BESPEC	Specimen Type	PERIPHERAL BLOOD	PUBLIC SOURCE	
GSE21231	BE	IBD-00570	BESEQ	1	BESPEC	Specimen Type	RNA	PUBLIC SOURCE	
GSE21231	BE	IBD-00570	BESEQ	2	BESPEC	Specimen Type	PERIPHERAL BLOOD	PUBLIC SOURCE	
GSE21231	BE	IBD-00571	BESEQ	1	BESPEC	Specimen Type	RNA	PUBLIC SOURCE	
GSE21231	BE	IBD-00571	BESEQ	2	BESPEC	Specimen Type	PERIPHERAL BLOOD	PUBLIC SOURCE	
GSE21231	BE	IBD-00572	BESEQ	1	BESPEC	Specimen Type	RNA	PUBLIC SOURCE	
GSE21231	BE	IBD-00572	BESEQ	2	BESPEC	Specimen Type	PERIPHERAL BLOOD	PUBLIC SOURCE	
GSE21231	BE	IBD-00573	BESEQ	1	BESPEC	Specimen Type	RNA	PUBLIC SOURCE	
GSE21231	BE	IBD-00573	BESEQ	2	BESPEC	Specimen Type	PERIPHERAL BLOOD	PUBLIC SOURCE	
GSE21231	BE	IBD-00574	BESEQ	1	BESPEC	Specimen Type	RNA	PUBLIC SOURCE	
GSE21231	BE	IBD-00574	BESEQ	2	BESPEC	Specimen Type	PERIPHERAL BLOOD	PUBLIC SOURCE	
GSE21231	BE	IBD-00575	BESEQ	1	BESPEC	Specimen Type	RNA	PUBLIC SOURCE	
GSE21231	BE	IBD-00575	BESEQ	2	BESPEC	Specimen Type	PERIPHERAL BLOOD	PUBLIC SOURCE	
GSE21231	BE	IBD-00576	BESEQ	1	BESPEC	Specimen Type	RNA	PUBLIC SOURCE	
GSE21231	BE	IBD-00576	BESEQ	2	BESPEC	Specimen Type	PERIPHERAL BLOOD	PUBLIC SOURCE	
GSE21231	BE	IBD-00577	BESEQ	1	BESPEC	Specimen Type	RNA	PUBLIC SOURCE	
GSE21231	BE	IBD-00577	BESEQ	2	BESPEC	Specimen Type	PERIPHERAL BLOOD	PUBLIC SOURCE	
GSE21231	BE	IBD-00578	BESEQ	1	BESPEC	Specimen Type	RNA	PUBLIC SOURCE	
GSE21231	BE	IBD-00578	BESEQ	2	BESPEC	Specimen Type	PERIPHERAL BLOOD	PUBLIC SOURCE	
GSE21231	BE	IBD-00579	BESEQ	1	BESPEC	Specimen Type	RNA	PUBLIC SOURCE	
GSE21231	BE	IBD-00579	BESEQ	2	BESPEC	Specimen Type	PERIPHERAL BLOOD	PUBLIC SOURCE	
GSE21231	BE	IBD-00580	BESEQ	1	BESPEC	Specimen Type	RNA	PUBLIC SOURCE	
GSE21231	BE	IBD-00580	BESEQ	2	BESPEC	Specimen Type	PERIPHERAL BLOOD	PUBLIC SOURCE	
GSE21231	BE	IBD-00581	BESEQ	1	BESPEC	Specimen Type	RNA	PUBLIC SOURCE	
GSE21231	BE	IBD-00581	BESEQ	2	BESPEC	Specimen Type	PERIPHERAL BLOOD	PUBLIC SOURCE	
GSE21231	BE	IBD-00582	BESEQ	1	BESPEC	Specimen Type	RNA	PUBLIC SOURCE	
GSE21231	BE	IBD-00582	BESEQ	2	BESPEC	Specimen Type	PERIPHERAL BLOOD	PUBLIC SOURCE	
GSE21231	BE	IBD-00583	BESEQ	1	BESPEC	Specimen Type	RNA	PUBLIC SOURCE	
GSE21231	BE	IBD-00583	BESEQ	2	BESPEC	Specimen Type	PERIPHERAL BLOOD	PUBLIC SOURCE	
GSE21231	BE	IBD-00584	BESEQ	1	BESPEC	Specimen Type	RNA	PUBLIC SOURCE	
GSE21231	BE	IBD-00584	BESEQ	2	BESPEC	Specimen Type	PERIPHERAL BLOOD	PUBLIC SOURCE	
GSE21231	BE	IBD-00585	BESEQ	1	BESPEC	Specimen Type	RNA	PUBLIC SOURCE	
GSE21231	BE	IBD-00585	BESEQ	2	BESPEC	Specimen Type	PERIPHERAL BLOOD	PUBLIC SOURCE	
GSE21231	BE	IBD-00586	BESEQ	1	BESPEC	Specimen Type	RNA	PUBLIC SOURCE	
GSE21231	BE	IBD-00586	BESEQ	2	BESPEC	Specimen Type	PERIPHERAL BLOOD	PUBLIC SOURCE	
GSE21231	BE	IBD-00587	BESEQ	1	BESPEC	Specimen Type	RNA	PUBLIC SOURCE	
GSE21231	BE	IBD-00587	BESEQ	2	BESPEC	Specimen Type	PERIPHERAL BLOOD	PUBLIC SOURCE	
GSE21231	BE	IBD-00588	BESEQ	1	BESPEC	Specimen Type	RNA	PUBLIC SOURCE	
GSE21231	BE	IBD-00588	BESEQ	2	BESPEC	Specimen Type	PERIPHERAL BLOOD	PUBLIC SOURCE	
GSE21231	BE	IBD-00589	BESEQ	1	BESPEC	Specimen Type	RNA	PUBLIC SOURCE	
GSE21231	BE	IBD-00589	BESEQ	2	BESPEC	Specimen Type	PERIPHERAL BLOOD	PUBLIC SOURCE	
GSE21231	BE	IBD-00590	BESEQ	1	BESPEC	Specimen Type	RNA	PUBLIC SOURCE	
GSE21231	BE	IBD-00590	BESEQ	2	BESPEC	Specimen Type	PERIPHERAL BLOOD	PUBLIC SOURCE	
GSE21231	BE	IBD-00591	BESEQ	1	BESPEC	Specimen Type	RNA	PUBLIC SOURCE	
GSE21231	BE	IBD-00591	BESEQ	2	BESPEC	Specimen Type	PERIPHERAL BLOOD	PUBLIC SOURCE	
GSE21231	BE	IBD-00592	BESEQ	1	BESPEC	Specimen Type	RNA	PUBLIC SOURCE	
GSE21231	BE	IBD-00592	BESEQ	2	BESPEC	Specimen Type	PERIPHERAL BLOOD	PUBLIC SOURCE	
GSE21231	BE	IBD-00593	BESEQ	1	BESPEC	Specimen Type	RNA	PUBLIC SOURCE	
GSE21231	BE	IBD-00593	BESEQ	2	BESPEC	Specimen Type	PERIPHERAL BLOOD	PUBLIC SOURCE	
GSE22619	BE	IBD-00595	BESEQ	1	BESPEC	Specimen Type	RNA	PUBLIC SOURCE	
GSE22619	BE	IBD-00595	BESEQ	2	UCSTATUS	Ulcerative Colitis Status	INACTIVE ULCERATIVE COLITIS	PUBLIC SOURCE	
GSE22619	BE	IBD-00595	BESEQ	2	BESPEC	Specimen Type	COLON, SIGMOID	PUBLIC SOURCE	
GSE22619	BE	IBD-00597	BESEQ	1	BESPEC	Specimen Type	RNA	PUBLIC SOURCE	
GSE22619	BE	IBD-00597	BESEQ	2	UCSTATUS	Ulcerative Colitis Status	INACTIVE ULCERATIVE COLITIS	PUBLIC SOURCE	
GSE22619	BE	IBD-00597	BESEQ	2	BESPEC	Specimen Type	COLON, SIGMOID	PUBLIC SOURCE	
GSE22619	BE	IBD-00599	BESEQ	1	BESPEC	Specimen Type	RNA	PUBLIC SOURCE	
GSE22619	BE	IBD-00599	BESEQ	2	UCSTATUS	Ulcerative Colitis Status	INACTIVE ULCERATIVE COLITIS	PUBLIC SOURCE	
GSE22619	BE	IBD-00599	BESEQ	2	BESPEC	Specimen Type	COLON, SIGMOID	PUBLIC SOURCE	
GSE22619	BE	IBD-00601	BESEQ	1	BESPEC	Specimen Type	RNA	PUBLIC SOURCE	
GSE22619	BE	IBD-00601	BESEQ	2	UCSTATUS	Ulcerative Colitis Status	INACTIVE ULCERATIVE COLITIS	PUBLIC SOURCE	
GSE22619	BE	IBD-00601	BESEQ	2	BESPEC	Specimen Type	COLON, SIGMOID	PUBLIC SOURCE	
GSE22619	BE	IBD-00603	BESEQ	1	BESPEC	Specimen Type	RNA	PUBLIC SOURCE	
GSE22619	BE	IBD-00603	BESEQ	2	UCSTATUS	Ulcerative Colitis Status	INACTIVE ULCERATIVE COLITIS	PUBLIC SOURCE	
GSE22619	BE	IBD-00603	BESEQ	2	BESPEC	Specimen Type	ILEUM	PUBLIC SOURCE	
GSE22619	BE	IBD-00605	BESEQ	1	BESPEC	Specimen Type	RNA	PUBLIC SOURCE	
GSE22619	BE	IBD-00605	BESEQ	2	UCSTATUS	Ulcerative Colitis Status	INACTIVE ULCERATIVE COLITIS	PUBLIC SOURCE	
GSE22619	BE	IBD-00605	BESEQ	2	BESPEC	Specimen Type	COLON, SIGMOID	PUBLIC SOURCE	
GSE22619	BE	IBD-00607	BESEQ	1	BESPEC	Specimen Type	RNA	PUBLIC SOURCE	
GSE22619	BE	IBD-00607	BESEQ	2	UCSTATUS	Ulcerative Colitis Status	INACTIVE ULCERATIVE COLITIS	PUBLIC SOURCE	
GSE22619	BE	IBD-00607	BESEQ	2	BESPEC	Specimen Type	COLON, SIGMOID	PUBLIC SOURCE	
GSE22619	BE	IBD-00609	BESEQ	1	BESPEC	Specimen Type	RNA	PUBLIC SOURCE	
GSE22619	BE	IBD-00609	BESEQ	2	UCSTATUS	Ulcerative Colitis Status	INACTIVE ULCERATIVE COLITIS	PUBLIC SOURCE	
GSE22619	BE	IBD-00609	BESEQ	2	BESPEC	Specimen Type	COLON, SIGMOID	PUBLIC SOURCE	
GSE13367	BE	IBD-00610	BESEQ	1	BESPEC	Specimen Type	RNA	PUBLIC SOURCE	
GSE13367	BE	IBD-00610	BESEQ	2	BESPEC	Specimen Type	RNA	PUBLIC SOURCE	
GSE13367	BE	IBD-00610	BESEQ	3	UCSTATUS	Ulcerative Colitis Status	ACTIVE ULCERATIVE COLITIS	PUBLIC SOURCE	
GSE13367	BE	IBD-00610	BESEQ	3	BESPEC	Specimen Type	COLON, DESCENDING	PUBLIC SOURCE	
GSE13367	BE	IBD-00610	BESEQ	4	UCSTATUS	Ulcerative Colitis Status	ACTIVE ULCERATIVE COLITIS	PUBLIC SOURCE	
GSE13367	BE	IBD-00610	BESEQ	4	BESPEC	Specimen Type	COLON, DESCENDING	PUBLIC SOURCE	
GSE13367	BE	IBD-00611	BESEQ	1	BESPEC	Specimen Type	RNA	PUBLIC SOURCE	
GSE13367	BE	IBD-00611	BESEQ	2	BESPEC	Specimen Type	RNA	PUBLIC SOURCE	
GSE13367	BE	IBD-00611	BESEQ	3	UCSTATUS	Ulcerative Colitis Status	ACTIVE ULCERATIVE COLITIS	PUBLIC SOURCE	
GSE13367	BE	IBD-00611	BESEQ	3	BESPEC	Specimen Type	COLON, DESCENDING	PUBLIC SOURCE	
GSE13367	BE	IBD-00611	BESEQ	4	UCSTATUS	Ulcerative Colitis Status	ACTIVE ULCERATIVE COLITIS	PUBLIC SOURCE	
GSE13367	BE	IBD-00611	BESEQ	4	BESPEC	Specimen Type	COLON, DESCENDING	PUBLIC SOURCE	
GSE13367	BE	IBD-00612	BESEQ	1	BESPEC	Specimen Type	RNA	PUBLIC SOURCE	
GSE13367	BE	IBD-00612	BESEQ	2	BESPEC	Specimen Type	RNA	PUBLIC SOURCE	
GSE13367	BE	IBD-00612	BESEQ	3	UCSTATUS	Ulcerative Colitis Status	ACTIVE ULCERATIVE COLITIS	PUBLIC SOURCE	
GSE13367	BE	IBD-00612	BESEQ	3	BESPEC	Specimen Type	COLON, DESCENDING	PUBLIC SOURCE	
GSE13367	BE	IBD-00612	BESEQ	4	UCSTATUS	Ulcerative Colitis Status	ACTIVE ULCERATIVE COLITIS	PUBLIC SOURCE	
GSE13367	BE	IBD-00612	BESEQ	4	BESPEC	Specimen Type	COLON, DESCENDING	PUBLIC SOURCE	
GSE13367	BE	IBD-00613	BESEQ	1	BESPEC	Specimen Type	RNA	PUBLIC SOURCE	
GSE13367	BE	IBD-00613	BESEQ	2	BESPEC	Specimen Type	RNA	PUBLIC SOURCE	
GSE13367	BE	IBD-00613	BESEQ	3	UCSTATUS	Ulcerative Colitis Status	ACTIVE ULCERATIVE COLITIS	PUBLIC SOURCE	
GSE13367	BE	IBD-00613	BESEQ	3	BESPEC	Specimen Type	COLON, DESCENDING	PUBLIC SOURCE	
GSE13367	BE	IBD-00613	BESEQ	4	UCSTATUS	Ulcerative Colitis Status	ACTIVE ULCERATIVE COLITIS	PUBLIC SOURCE	
GSE13367	BE	IBD-00613	BESEQ	4	BESPEC	Specimen Type	COLON, DESCENDING	PUBLIC SOURCE	
GSE13367	BE	IBD-00614	BESEQ	1	BESPEC	Specimen Type	RNA	PUBLIC SOURCE	
GSE13367	BE	IBD-00614	BESEQ	2	BESPEC	Specimen Type	RNA	PUBLIC SOURCE	
GSE13367	BE	IBD-00614	BESEQ	3	UCSTATUS	Ulcerative Colitis Status	ACTIVE ULCERATIVE COLITIS	PUBLIC SOURCE	
GSE13367	BE	IBD-00614	BESEQ	3	BESPEC	Specimen Type	COLON, DESCENDING	PUBLIC SOURCE	
GSE13367	BE	IBD-00614	BESEQ	4	UCSTATUS	Ulcerative Colitis Status	ACTIVE ULCERATIVE COLITIS	PUBLIC SOURCE	
GSE13367	BE	IBD-00614	BESEQ	4	BESPEC	Specimen Type	COLON, DESCENDING	PUBLIC SOURCE	
GSE13367	BE	IBD-00615	BESEQ	1	BESPEC	Specimen Type	RNA	PUBLIC SOURCE	
GSE13367	BE	IBD-00615	BESEQ	2	BESPEC	Specimen Type	RNA	PUBLIC SOURCE	
GSE13367	BE	IBD-00615	BESEQ	3	UCSTATUS	Ulcerative Colitis Status	ACTIVE ULCERATIVE COLITIS	PUBLIC SOURCE	
GSE13367	BE	IBD-00615	BESEQ	3	BESPEC	Specimen Type	COLON, DESCENDING	PUBLIC SOURCE	
GSE13367	BE	IBD-00615	BESEQ	4	UCSTATUS	Ulcerative Colitis Status	ACTIVE ULCERATIVE COLITIS	PUBLIC SOURCE	
GSE13367	BE	IBD-00615	BESEQ	4	BESPEC	Specimen Type	COLON, DESCENDING	PUBLIC SOURCE	
GSE13367	BE	IBD-00616	BESEQ	1	BESPEC	Specimen Type	RNA	PUBLIC SOURCE	
GSE13367	BE	IBD-00616	BESEQ	2	BESPEC	Specimen Type	RNA	PUBLIC SOURCE	
GSE13367	BE	IBD-00616	BESEQ	3	UCSTATUS	Ulcerative Colitis Status	ACTIVE ULCERATIVE COLITIS	PUBLIC SOURCE	
GSE13367	BE	IBD-00616	BESEQ	3	BESPEC	Specimen Type	COLON, DESCENDING	PUBLIC SOURCE	
GSE13367	BE	IBD-00616	BESEQ	4	UCSTATUS	Ulcerative Colitis Status	ACTIVE ULCERATIVE COLITIS	PUBLIC SOURCE	
GSE13367	BE	IBD-00616	BESEQ	4	BESPEC	Specimen Type	COLON, DESCENDING	PUBLIC SOURCE	
GSE13367	BE	IBD-00617	BESEQ	1	BESPEC	Specimen Type	RNA	PUBLIC SOURCE	
GSE13367	BE	IBD-00617	BESEQ	2	BESPEC	Specimen Type	RNA	PUBLIC SOURCE	
GSE13367	BE	IBD-00617	BESEQ	3	UCSTATUS	Ulcerative Colitis Status	ACTIVE ULCERATIVE COLITIS	PUBLIC SOURCE	
GSE13367	BE	IBD-00617	BESEQ	3	BESPEC	Specimen Type	COLON, DESCENDING	PUBLIC SOURCE	
GSE13367	BE	IBD-00617	BESEQ	4	UCSTATUS	Ulcerative Colitis Status	ACTIVE ULCERATIVE COLITIS	PUBLIC SOURCE	
GSE13367	BE	IBD-00617	BESEQ	4	BESPEC	Specimen Type	COLON, DESCENDING	PUBLIC SOURCE	
GSE13367	BE	IBD-00630	BESEQ	1	BESPEC	Specimen Type	RNA	PUBLIC SOURCE	
GSE13367	BE	IBD-00630	BESEQ	2	BESPEC	Specimen Type	RNA	PUBLIC SOURCE	
GSE13367	BE	IBD-00630	BESEQ	3	UCSTATUS	Ulcerative Colitis Status	INACTIVE ULCERATIVE COLITIS	PUBLIC SOURCE	
GSE13367	BE	IBD-00630	BESEQ	3	BESPEC	Specimen Type	COLON, DESCENDING	PUBLIC SOURCE	
GSE13367	BE	IBD-00630	BESEQ	4	UCSTATUS	Ulcerative Colitis Status	INACTIVE ULCERATIVE COLITIS	PUBLIC SOURCE	
GSE13367	BE	IBD-00630	BESEQ	4	BESPEC	Specimen Type	COLON, DESCENDING	PUBLIC SOURCE	
GSE13367	BE	IBD-00632	BESEQ	1	BESPEC	Specimen Type	RNA	PUBLIC SOURCE	
GSE13367	BE	IBD-00632	BESEQ	2	BESPEC	Specimen Type	RNA	PUBLIC SOURCE	
GSE13367	BE	IBD-00632	BESEQ	3	UCSTATUS	Ulcerative Colitis Status	INACTIVE ULCERATIVE COLITIS	PUBLIC SOURCE	
GSE13367	BE	IBD-00632	BESEQ	3	BESPEC	Specimen Type	COLON, DESCENDING	PUBLIC SOURCE	
GSE13367	BE	IBD-00632	BESEQ	4	UCSTATUS	Ulcerative Colitis Status	INACTIVE ULCERATIVE COLITIS	PUBLIC SOURCE	
GSE13367	BE	IBD-00632	BESEQ	4	BESPEC	Specimen Type	COLON, DESCENDING	PUBLIC SOURCE	
GSE13367	BE	IBD-00633	BESEQ	1	BESPEC	Specimen Type	RNA	PUBLIC SOURCE	
GSE13367	BE	IBD-00633	BESEQ	2	BESPEC	Specimen Type	RNA	PUBLIC SOURCE	
GSE13367	BE	IBD-00633	BESEQ	3	UCSTATUS	Ulcerative Colitis Status	INACTIVE ULCERATIVE COLITIS	PUBLIC SOURCE	
GSE13367	BE	IBD-00633	BESEQ	3	BESPEC	Specimen Type	COLON, DESCENDING	PUBLIC SOURCE	
GSE13367	BE	IBD-00633	BESEQ	4	UCSTATUS	Ulcerative Colitis Status	INACTIVE ULCERATIVE COLITIS	PUBLIC SOURCE	
GSE13367	BE	IBD-00633	BESEQ	4	BESPEC	Specimen Type	COLON, DESCENDING	PUBLIC SOURCE	
GSE13367	BE	IBD-00635	BESEQ	1	BESPEC	Specimen Type	RNA	PUBLIC SOURCE	
GSE13367	BE	IBD-00635	BESEQ	2	BESPEC	Specimen Type	RNA	PUBLIC SOURCE	
GSE13367	BE	IBD-00635	BESEQ	3	UCSTATUS	Ulcerative Colitis Status	INACTIVE ULCERATIVE COLITIS	PUBLIC SOURCE	
GSE13367	BE	IBD-00635	BESEQ	3	BESPEC	Specimen Type	COLON, DESCENDING	PUBLIC SOURCE	
GSE13367	BE	IBD-00635	BESEQ	4	UCSTATUS	Ulcerative Colitis Status	INACTIVE ULCERATIVE COLITIS	PUBLIC SOURCE	
GSE13367	BE	IBD-00635	BESEQ	4	BESPEC	Specimen Type	COLON, DESCENDING	PUBLIC SOURCE	
GSE13367	BE	IBD-00636	BESEQ	1	BESPEC	Specimen Type	RNA	PUBLIC SOURCE	
GSE13367	BE	IBD-00636	BESEQ	2	BESPEC	Specimen Type	RNA	PUBLIC SOURCE	
GSE13367	BE	IBD-00636	BESEQ	3	UCSTATUS	Ulcerative Colitis Status	INACTIVE ULCERATIVE COLITIS	PUBLIC SOURCE	
GSE13367	BE	IBD-00636	BESEQ	3	BESPEC	Specimen Type	COLON, DESCENDING	PUBLIC SOURCE	
GSE13367	BE	IBD-00636	BESEQ	4	UCSTATUS	Ulcerative Colitis Status	INACTIVE ULCERATIVE COLITIS	PUBLIC SOURCE	
GSE13367	BE	IBD-00636	BESEQ	4	BESPEC	Specimen Type	COLON, DESCENDING	PUBLIC SOURCE	
GSE13367	BE	IBD-00638	BESEQ	1	BESPEC	Specimen Type	RNA	PUBLIC SOURCE	
GSE13367	BE	IBD-00638	BESEQ	2	BESPEC	Specimen Type	RNA	PUBLIC SOURCE	
GSE13367	BE	IBD-00638	BESEQ	3	UCSTATUS	Ulcerative Colitis Status	INACTIVE ULCERATIVE COLITIS	PUBLIC SOURCE	
GSE13367	BE	IBD-00638	BESEQ	3	BESPEC	Specimen Type	COLON, DESCENDING	PUBLIC SOURCE	
GSE13367	BE	IBD-00638	BESEQ	4	UCSTATUS	Ulcerative Colitis Status	INACTIVE ULCERATIVE COLITIS	PUBLIC SOURCE	
GSE13367	BE	IBD-00638	BESEQ	4	BESPEC	Specimen Type	COLON, DESCENDING	PUBLIC SOURCE	
GSE13367	BE	IBD-00639	BESEQ	1	BESPEC	Specimen Type	RNA	PUBLIC SOURCE	
GSE13367	BE	IBD-00639	BESEQ	2	BESPEC	Specimen Type	RNA	PUBLIC SOURCE	
GSE13367	BE	IBD-00639	BESEQ	3	UCSTATUS	Ulcerative Colitis Status	INACTIVE ULCERATIVE COLITIS	PUBLIC SOURCE	
GSE13367	BE	IBD-00639	BESEQ	3	BESPEC	Specimen Type	COLON, DESCENDING	PUBLIC SOURCE	
GSE13367	BE	IBD-00639	BESEQ	4	UCSTATUS	Ulcerative Colitis Status	INACTIVE ULCERATIVE COLITIS	PUBLIC SOURCE	
GSE13367	BE	IBD-00639	BESEQ	4	BESPEC	Specimen Type	COLON, DESCENDING	PUBLIC SOURCE	
GSE13367	BE	IBD-00641	BESEQ	1	BESPEC	Specimen Type	RNA	PUBLIC SOURCE	
GSE13367	BE	IBD-00641	BESEQ	2	BESPEC	Specimen Type	RNA	PUBLIC SOURCE	
GSE13367	BE	IBD-00641	BESEQ	3	UCSTATUS	Ulcerative Colitis Status	INACTIVE ULCERATIVE COLITIS	PUBLIC SOURCE	
GSE13367	BE	IBD-00641	BESEQ	3	BESPEC	Specimen Type	COLON, DESCENDING	PUBLIC SOURCE	
GSE13367	BE	IBD-00641	BESEQ	4	UCSTATUS	Ulcerative Colitis Status	INACTIVE ULCERATIVE COLITIS	PUBLIC SOURCE	
GSE13367	BE	IBD-00641	BESEQ	4	BESPEC	Specimen Type	COLON, DESCENDING	PUBLIC SOURCE	
GSE13367	BE	IBD-00643	BESEQ	1	BESPEC	Specimen Type	RNA	PUBLIC SOURCE	
GSE13367	BE	IBD-00643	BESEQ	2	BESPEC	Specimen Type	RNA	PUBLIC SOURCE	
GSE13367	BE	IBD-00643	BESEQ	3	UCSTATUS	Ulcerative Colitis Status	INACTIVE ULCERATIVE COLITIS	PUBLIC SOURCE	
GSE13367	BE	IBD-00643	BESEQ	3	BESPEC	Specimen Type	COLON, DESCENDING	PUBLIC SOURCE	
GSE13367	BE	IBD-00643	BESEQ	4	UCSTATUS	Ulcerative Colitis Status	INACTIVE ULCERATIVE COLITIS	PUBLIC SOURCE	
GSE13367	BE	IBD-00643	BESEQ	4	BESPEC	Specimen Type	COLON, DESCENDING	PUBLIC SOURCE	
GSE9452	BE	IBD-00672	BESEQ	1	BESPEC	Specimen Type	RNA	PUBLIC SOURCE	
GSE9452	BE	IBD-00672	BESEQ	2	UCSTATUS	Ulcerative Colitis Status	INACTIVE ULCERATIVE COLITIS	PUBLIC SOURCE	
GSE9452	BE	IBD-00672	BESEQ	2	BESPEC	Specimen Type	COLON	PUBLIC SOURCE	
GSE9452	BE	IBD-00674	BESEQ	1	BESPEC	Specimen Type	RNA	PUBLIC SOURCE	
GSE9452	BE	IBD-00674	BESEQ	2	UCSTATUS	Ulcerative Colitis Status	ACTIVE ULCERATIVE COLITIS	PUBLIC SOURCE	
GSE9452	BE	IBD-00674	BESEQ	2	BESPEC	Specimen Type	COLON, DESCENDING	PUBLIC SOURCE	
GSE9452	BE	IBD-00676	BESEQ	1	BESPEC	Specimen Type	RNA	PUBLIC SOURCE	
GSE9452	BE	IBD-00676	BESEQ	2	UCSTATUS	Ulcerative Colitis Status	ACTIVE ULCERATIVE COLITIS	PUBLIC SOURCE	
GSE9452	BE	IBD-00676	BESEQ	2	BESPEC	Specimen Type	COLON, DESCENDING	PUBLIC SOURCE	
GSE9452	BE	IBD-00678	BESEQ	1	BESPEC	Specimen Type	RNA	PUBLIC SOURCE	
GSE9452	BE	IBD-00678	BESEQ	2	UCSTATUS	Ulcerative Colitis Status	ACTIVE ULCERATIVE COLITIS	PUBLIC SOURCE	
GSE9452	BE	IBD-00678	BESEQ	2	BESPEC	Specimen Type	COLON, DESCENDING	PUBLIC SOURCE	
GSE9452	BE	IBD-00680	BESEQ	1	BESPEC	Specimen Type	RNA	PUBLIC SOURCE	
GSE9452	BE	IBD-00680	BESEQ	2	UCSTATUS	Ulcerative Colitis Status	ACTIVE ULCERATIVE COLITIS	PUBLIC SOURCE	
GSE9452	BE	IBD-00680	BESEQ	2	BESPEC	Specimen Type	COLON, DESCENDING	PUBLIC SOURCE	
GSE9452	BE	IBD-00682	BESEQ	1	BESPEC	Specimen Type	RNA	PUBLIC SOURCE	
GSE9452	BE	IBD-00682	BESEQ	2	UCSTATUS	Ulcerative Colitis Status	ACTIVE ULCERATIVE COLITIS	PUBLIC SOURCE	
GSE9452	BE	IBD-00682	BESEQ	2	BESPEC	Specimen Type	COLON, DESCENDING	PUBLIC SOURCE	
GSE9452	BE	IBD-00684	BESEQ	1	BESPEC	Specimen Type	RNA	PUBLIC SOURCE	
GSE9452	BE	IBD-00684	BESEQ	2	UCSTATUS	Ulcerative Colitis Status	ACTIVE ULCERATIVE COLITIS	PUBLIC SOURCE	
GSE9452	BE	IBD-00684	BESEQ	2	BESPEC	Specimen Type	COLON, DESCENDING	PUBLIC SOURCE	
GSE9452	BE	IBD-00686	BESEQ	1	BESPEC	Specimen Type	RNA	PUBLIC SOURCE	
GSE9452	BE	IBD-00686	BESEQ	2	UCSTATUS	Ulcerative Colitis Status	ACTIVE ULCERATIVE COLITIS	PUBLIC SOURCE	
GSE9452	BE	IBD-00686	BESEQ	2	BESPEC	Specimen Type	COLON, DESCENDING	PUBLIC SOURCE	
GSE9452	BE	IBD-00688	BESEQ	1	BESPEC	Specimen Type	RNA	PUBLIC SOURCE	
GSE9452	BE	IBD-00688	BESEQ	2	UCSTATUS	Ulcerative Colitis Status	ACTIVE ULCERATIVE COLITIS	PUBLIC SOURCE	
GSE9452	BE	IBD-00688	BESEQ	2	BESPEC	Specimen Type	COLON, DESCENDING	PUBLIC SOURCE	
GSE9452	BE	IBD-00690	BESEQ	1	BESPEC	Specimen Type	RNA	PUBLIC SOURCE	
GSE9452	BE	IBD-00690	BESEQ	2	UCSTATUS	Ulcerative Colitis Status	INACTIVE ULCERATIVE COLITIS	PUBLIC SOURCE	
GSE9452	BE	IBD-00690	BESEQ	2	BESPEC	Specimen Type	COLON, DESCENDING	PUBLIC SOURCE	
GSE9452	BE	IBD-00692	BESEQ	1	BESPEC	Specimen Type	RNA	PUBLIC SOURCE	
GSE9452	BE	IBD-00692	BESEQ	2	UCSTATUS	Ulcerative Colitis Status	INACTIVE ULCERATIVE COLITIS	PUBLIC SOURCE	
GSE9452	BE	IBD-00692	BESEQ	2	BESPEC	Specimen Type	COLON, DESCENDING	PUBLIC SOURCE	
GSE9452	BE	IBD-00694	BESEQ	1	BESPEC	Specimen Type	RNA	PUBLIC SOURCE	
GSE9452	BE	IBD-00694	BESEQ	2	UCSTATUS	Ulcerative Colitis Status	INACTIVE ULCERATIVE COLITIS	PUBLIC SOURCE	
GSE9452	BE	IBD-00694	BESEQ	2	BESPEC	Specimen Type	COLON, DESCENDING	PUBLIC SOURCE	
GSE9452	BE	IBD-00695	BESEQ	1	BESPEC	Specimen Type	RNA	PUBLIC SOURCE	
GSE9452	BE	IBD-00695	BESEQ	2	UCSTATUS	Ulcerative Colitis Status	INACTIVE ULCERATIVE COLITIS	PUBLIC SOURCE	
GSE9452	BE	IBD-00695	BESEQ	2	BESPEC	Specimen Type	COLON, DESCENDING	PUBLIC SOURCE	
GSE9452	BE	IBD-00697	BESEQ	1	BESPEC	Specimen Type	RNA	PUBLIC SOURCE	
GSE9452	BE	IBD-00697	BESEQ	2	UCSTATUS	Ulcerative Colitis Status	INACTIVE ULCERATIVE COLITIS	PUBLIC SOURCE	
GSE9452	BE	IBD-00697	BESEQ	2	BESPEC	Specimen Type	COLON, DESCENDING	PUBLIC SOURCE	
GSE9452	BE	IBD-00698	BESEQ	1	BESPEC	Specimen Type	RNA	PUBLIC SOURCE	
GSE9452	BE	IBD-00698	BESEQ	2	UCSTATUS	Ulcerative Colitis Status	INACTIVE ULCERATIVE COLITIS	PUBLIC SOURCE	
GSE9452	BE	IBD-00698	BESEQ	2	BESPEC	Specimen Type	COLON, DESCENDING	PUBLIC SOURCE	
GSE9452	BE	IBD-00700	BESEQ	1	BESPEC	Specimen Type	RNA	PUBLIC SOURCE	
GSE9452	BE	IBD-00700	BESEQ	2	UCSTATUS	Ulcerative Colitis Status	INACTIVE ULCERATIVE COLITIS	PUBLIC SOURCE	
GSE9452	BE	IBD-00700	BESEQ	2	BESPEC	Specimen Type	COLON, DESCENDING	PUBLIC SOURCE	
GSE9452	BE	IBD-00701	BESEQ	1	BESPEC	Specimen Type	RNA	PUBLIC SOURCE	
GSE9452	BE	IBD-00701	BESEQ	2	UCSTATUS	Ulcerative Colitis Status	INACTIVE ULCERATIVE COLITIS	PUBLIC SOURCE	
GSE9452	BE	IBD-00701	BESEQ	2	BESPEC	Specimen Type	COLON, DESCENDING	PUBLIC SOURCE	
GSE9452	BE	IBD-00703	BESEQ	1	BESPEC	Specimen Type	RNA	PUBLIC SOURCE	
GSE9452	BE	IBD-00703	BESEQ	2	UCSTATUS	Ulcerative Colitis Status	INACTIVE ULCERATIVE COLITIS	PUBLIC SOURCE	
GSE9452	BE	IBD-00703	BESEQ	2	BESPEC	Specimen Type	COLON, DESCENDING	PUBLIC SOURCE	
GSE9452	BE	IBD-00705	BESEQ	1	BESPEC	Specimen Type	RNA	PUBLIC SOURCE	
GSE9452	BE	IBD-00705	BESEQ	2	UCSTATUS	Ulcerative Colitis Status	INACTIVE ULCERATIVE COLITIS	PUBLIC SOURCE	
GSE9452	BE	IBD-00705	BESEQ	2	BESPEC	Specimen Type	COLON, SIGMOID	PUBLIC SOURCE	
GSE9452	BE	IBD-00707	BESEQ	1	BESPEC	Specimen Type	RNA	PUBLIC SOURCE	
GSE9452	BE	IBD-00707	BESEQ	2	UCSTATUS	Ulcerative Colitis Status	INACTIVE ULCERATIVE COLITIS	PUBLIC SOURCE	
GSE9452	BE	IBD-00707	BESEQ	2	BESPEC	Specimen Type	COLON, SIGMOID	PUBLIC SOURCE	
GSE9452	BE	IBD-00709	BESEQ	1	BESPEC	Specimen Type	RNA	PUBLIC SOURCE	
GSE9452	BE	IBD-00709	BESEQ	2	UCSTATUS	Ulcerative Colitis Status	INACTIVE ULCERATIVE COLITIS	PUBLIC SOURCE	
GSE9452	BE	IBD-00709	BESEQ	2	BESPEC	Specimen Type	COLON, SIGMOID	PUBLIC SOURCE	
GSE10616	BE	IBD-00710	BESEQ	1	BESPEC	Specimen Type	RNA	PUBLIC SOURCE	
GSE10616	BE	IBD-00710	BESEQ	2	BESPEC	Specimen Type	COLON, ASCENDING	PUBLIC SOURCE	
GSE10616	BE	IBD-00711	BESEQ	1	BESPEC	Specimen Type	RNA	PUBLIC SOURCE	
GSE10616	BE	IBD-00711	BESEQ	2	BESPEC	Specimen Type	COLON, ASCENDING	PUBLIC SOURCE	
GSE10616	BE	IBD-00713	BESEQ	1	BESPEC	Specimen Type	RNA	PUBLIC SOURCE	
GSE10616	BE	IBD-00713	BESEQ	2	BESPEC	Specimen Type	COLON, ASCENDING	PUBLIC SOURCE	
GSE10616	BE	IBD-00714	BESEQ	1	BESPEC	Specimen Type	RNA	PUBLIC SOURCE	
GSE10616	BE	IBD-00714	BESEQ	2	BESPEC	Specimen Type	COLON, ASCENDING	PUBLIC SOURCE	
GSE10616	BE	IBD-00715	BESEQ	1	BESPEC	Specimen Type	RNA	PUBLIC SOURCE	
GSE10616	BE	IBD-00715	BESEQ	2	BESPEC	Specimen Type	COLON, ASCENDING	PUBLIC SOURCE	
GSE10616	BE	IBD-00717	BESEQ	1	BESPEC	Specimen Type	RNA	PUBLIC SOURCE	
GSE10616	BE	IBD-00717	BESEQ	2	BESPEC	Specimen Type	COLON, ASCENDING	PUBLIC SOURCE	
GSE10616	BE	IBD-00718	BESEQ	1	BESPEC	Specimen Type	RNA	PUBLIC SOURCE	
GSE10616	BE	IBD-00718	BESEQ	2	BESPEC	Specimen Type	COLON, ASCENDING	PUBLIC SOURCE	
GSE10616	BE	IBD-00719	BESEQ	1	BESPEC	Specimen Type	RNA	PUBLIC SOURCE	
GSE10616	BE	IBD-00719	BESEQ	2	BESPEC	Specimen Type	COLON, ASCENDING	PUBLIC SOURCE	
GSE10616	BE	IBD-00721	BESEQ	1	BESPEC	Specimen Type	RNA	PUBLIC SOURCE	
GSE10616	BE	IBD-00721	BESEQ	2	BESPEC	Specimen Type	COLON, ASCENDING	PUBLIC SOURCE	
GSE10616	BE	IBD-00722	BESEQ	1	BESPEC	Specimen Type	RNA	PUBLIC SOURCE	
GSE10616	BE	IBD-00722	BESEQ	2	BESPEC	Specimen Type	COLON, ASCENDING	PUBLIC SOURCE	
GSE2461	BE	IBD-00830	BESEQ	1	BESPEC	Specimen Type	RNA	PUBLIC SOURCE	
GSE2461	BE	IBD-00830	BESEQ	2	UCSTATUS	Ulcerative Colitis Status	INACTIVE ULCERATIVE COLITIS	PUBLIC SOURCE	
GSE2461	BE	IBD-00830	BESEQ	2	BESPEC	Specimen Type	COLON	PUBLIC SOURCE	
GSE2461	BE	IBD-00834	BESEQ	1	BESPEC	Specimen Type	RNA	PUBLIC SOURCE	
GSE2461	BE	IBD-00834	BESEQ	2	UCSTATUS	Ulcerative Colitis Status	INACTIVE ULCERATIVE COLITIS	PUBLIC SOURCE	
GSE2461	BE	IBD-00834	BESEQ	2	BESPEC	Specimen Type	COLON	PUBLIC SOURCE	
GSE23597	BE	IBD-00859	BESEQ	1	BESPEC	Specimen Type	RNA	PUBLIC SOURCE	
GSE23597	BE	IBD-00859	BESEQ	2	BESPEC	Specimen Type	RNA	PUBLIC SOURCE	
GSE23597	BE	IBD-00859	BESEQ	3	BESPEC	Specimen Type	RNA	PUBLIC SOURCE	
GSE23597	BE	IBD-00859	BESEQ	4	BESPEC	Specimen Type	COLON	PUBLIC SOURCE	
GSE23597	BE	IBD-00859	BESEQ	5	BESPEC	Specimen Type	COLON	PUBLIC SOURCE	
GSE23597	BE	IBD-00859	BESEQ	6	BESPEC	Specimen Type	COLON	PUBLIC SOURCE	
GSE23597	BE	IBD-00860	BESEQ	1	BESPEC	Specimen Type	RNA	PUBLIC SOURCE	
GSE23597	BE	IBD-00860	BESEQ	2	BESPEC	Specimen Type	RNA	PUBLIC SOURCE	
GSE23597	BE	IBD-00860	BESEQ	3	BESPEC	Specimen Type	COLON	PUBLIC SOURCE	
GSE23597	BE	IBD-00860	BESEQ	4	BESPEC	Specimen Type	COLON	PUBLIC SOURCE	
GSE23597	BE	IBD-00861	BESEQ	1	BESPEC	Specimen Type	RNA	PUBLIC SOURCE	
GSE23597	BE	IBD-00861	BESEQ	2	BESPEC	Specimen Type	RNA	PUBLIC SOURCE	
GSE23597	BE	IBD-00861	BESEQ	3	BESPEC	Specimen Type	COLON	PUBLIC SOURCE	
GSE23597	BE	IBD-00861	BESEQ	4	BESPEC	Specimen Type	COLON	PUBLIC SOURCE	
GSE23597	BE	IBD-00862	BESEQ	1	BESPEC	Specimen Type	RNA	PUBLIC SOURCE	
GSE23597	BE	IBD-00862	BESEQ	2	BESPEC	Specimen Type	RNA	PUBLIC SOURCE	
GSE23597	BE	IBD-00862	BESEQ	3	BESPEC	Specimen Type	RNA	PUBLIC SOURCE	
GSE23597	BE	IBD-00862	BESEQ	4	BESPEC	Specimen Type	COLON	PUBLIC SOURCE	
GSE23597	BE	IBD-00862	BESEQ	5	BESPEC	Specimen Type	COLON	PUBLIC SOURCE	
GSE23597	BE	IBD-00862	BESEQ	6	BESPEC	Specimen Type	COLON	PUBLIC SOURCE	
GSE23597	BE	IBD-00863	BESEQ	1	BESPEC	Specimen Type	RNA	PUBLIC SOURCE	
GSE23597	BE	IBD-00863	BESEQ	2	BESPEC	Specimen Type	RNA	PUBLIC SOURCE	
GSE23597	BE	IBD-00863	BESEQ	3	BESPEC	Specimen Type	COLON	PUBLIC SOURCE	
GSE23597	BE	IBD-00863	BESEQ	4	BESPEC	Specimen Type	COLON	PUBLIC SOURCE	
GSE23597	BE	IBD-00864	BESEQ	1	BESPEC	Specimen Type	RNA	PUBLIC SOURCE	
GSE23597	BE	IBD-00864	BESEQ	2	BESPEC	Specimen Type	RNA	PUBLIC SOURCE	
GSE23597	BE	IBD-00864	BESEQ	3	BESPEC	Specimen Type	RNA	PUBLIC SOURCE	
GSE23597	BE	IBD-00864	BESEQ	4	BESPEC	Specimen Type	COLON	PUBLIC SOURCE	
GSE23597	BE	IBD-00864	BESEQ	5	BESPEC	Specimen Type	COLON	PUBLIC SOURCE	
GSE23597	BE	IBD-00864	BESEQ	6	BESPEC	Specimen Type	COLON	PUBLIC SOURCE	
GSE23597	BE	IBD-00865	BESEQ	1	BESPEC	Specimen Type	RNA	PUBLIC SOURCE	
GSE23597	BE	IBD-00865	BESEQ	2	BESPEC	Specimen Type	RNA	PUBLIC SOURCE	
GSE23597	BE	IBD-00865	BESEQ	3	BESPEC	Specimen Type	RNA	PUBLIC SOURCE	
GSE23597	BE	IBD-00865	BESEQ	4	BESPEC	Specimen Type	COLON	PUBLIC SOURCE	
GSE23597	BE	IBD-00865	BESEQ	5	BESPEC	Specimen Type	COLON	PUBLIC SOURCE	
GSE23597	BE	IBD-00865	BESEQ	6	BESPEC	Specimen Type	COLON	PUBLIC SOURCE	
GSE23597	BE	IBD-00866	BESEQ	1	BESPEC	Specimen Type	RNA	PUBLIC SOURCE	
GSE23597	BE	IBD-00866	BESEQ	2	BESPEC	Specimen Type	RNA	PUBLIC SOURCE	
GSE23597	BE	IBD-00866	BESEQ	3	BESPEC	Specimen Type	RNA	PUBLIC SOURCE	
GSE23597	BE	IBD-00866	BESEQ	4	BESPEC	Specimen Type	COLON	PUBLIC SOURCE	
GSE23597	BE	IBD-00866	BESEQ	5	BESPEC	Specimen Type	COLON	PUBLIC SOURCE	
GSE23597	BE	IBD-00866	BESEQ	6	BESPEC	Specimen Type	COLON	PUBLIC SOURCE	
GSE23597	BE	IBD-00867	BESEQ	1	BESPEC	Specimen Type	RNA	PUBLIC SOURCE	
GSE23597	BE	IBD-00867	BESEQ	2	BESPEC	Specimen Type	RNA	PUBLIC SOURCE	
GSE23597	BE	IBD-00867	BESEQ	3	BESPEC	Specimen Type	COLON	PUBLIC SOURCE	
GSE23597	BE	IBD-00867	BESEQ	4	BESPEC	Specimen Type	COLON	PUBLIC SOURCE	
GSE23597	BE	IBD-00868	BESEQ	1	BESPEC	Specimen Type	RNA	PUBLIC SOURCE	
GSE23597	BE	IBD-00868	BESEQ	2	BESPEC	Specimen Type	RNA	PUBLIC SOURCE	
GSE23597	BE	IBD-00868	BESEQ	3	BESPEC	Specimen Type	COLON	PUBLIC SOURCE	
GSE23597	BE	IBD-00868	BESEQ	4	BESPEC	Specimen Type	COLON	PUBLIC SOURCE	
GSE23597	BE	IBD-00869	BESEQ	1	BESPEC	Specimen Type	RNA	PUBLIC SOURCE	
GSE23597	BE	IBD-00869	BESEQ	2	BESPEC	Specimen Type	RNA	PUBLIC SOURCE	
GSE23597	BE	IBD-00869	BESEQ	3	BESPEC	Specimen Type	RNA	PUBLIC SOURCE	
GSE23597	BE	IBD-00869	BESEQ	4	BESPEC	Specimen Type	COLON	PUBLIC SOURCE	
GSE23597	BE	IBD-00869	BESEQ	5	BESPEC	Specimen Type	COLON	PUBLIC SOURCE	
GSE23597	BE	IBD-00869	BESEQ	6	BESPEC	Specimen Type	COLON	PUBLIC SOURCE	
GSE23597	BE	IBD-00870	BESEQ	1	BESPEC	Specimen Type	RNA	PUBLIC SOURCE	
GSE23597	BE	IBD-00870	BESEQ	2	BESPEC	Specimen Type	RNA	PUBLIC SOURCE	
GSE23597	BE	IBD-00870	BESEQ	3	BESPEC	Specimen Type	RNA	PUBLIC SOURCE	
GSE23597	BE	IBD-00870	BESEQ	4	BESPEC	Specimen Type	COLON	PUBLIC SOURCE	
GSE23597	BE	IBD-00870	BESEQ	5	BESPEC	Specimen Type	COLON	PUBLIC SOURCE	
GSE23597	BE	IBD-00870	BESEQ	6	BESPEC	Specimen Type	COLON	PUBLIC SOURCE	
GSE23597	BE	IBD-00871	BESEQ	1	BESPEC	Specimen Type	RNA	PUBLIC SOURCE	
GSE23597	BE	IBD-00871	BESEQ	2	BESPEC	Specimen Type	RNA	PUBLIC SOURCE	
GSE23597	BE	IBD-00871	BESEQ	3	BESPEC	Specimen Type	RNA	PUBLIC SOURCE	
GSE23597	BE	IBD-00871	BESEQ	4	BESPEC	Specimen Type	COLON	PUBLIC SOURCE	
GSE23597	BE	IBD-00871	BESEQ	5	BESPEC	Specimen Type	COLON	PUBLIC SOURCE	
GSE23597	BE	IBD-00871	BESEQ	6	BESPEC	Specimen Type	COLON	PUBLIC SOURCE	
GSE23597	BE	IBD-00872	BESEQ	1	BESPEC	Specimen Type	RNA	PUBLIC SOURCE	
GSE23597	BE	IBD-00872	BESEQ	2	BESPEC	Specimen Type	RNA	PUBLIC SOURCE	
GSE23597	BE	IBD-00872	BESEQ	3	BESPEC	Specimen Type	COLON	PUBLIC SOURCE	
GSE23597	BE	IBD-00872	BESEQ	4	BESPEC	Specimen Type	COLON	PUBLIC SOURCE	
GSE23597	BE	IBD-00873	BESEQ	1	BESPEC	Specimen Type	RNA	PUBLIC SOURCE	
GSE23597	BE	IBD-00873	BESEQ	2	BESPEC	Specimen Type	RNA	PUBLIC SOURCE	
GSE23597	BE	IBD-00873	BESEQ	3	BESPEC	Specimen Type	RNA	PUBLIC SOURCE	
GSE23597	BE	IBD-00873	BESEQ	4	BESPEC	Specimen Type	COLON	PUBLIC SOURCE	
GSE23597	BE	IBD-00873	BESEQ	5	BESPEC	Specimen Type	COLON	PUBLIC SOURCE	
GSE23597	BE	IBD-00873	BESEQ	6	BESPEC	Specimen Type	COLON	PUBLIC SOURCE	
GSE23597	BE	IBD-00874	BESEQ	1	BESPEC	Specimen Type	RNA	PUBLIC SOURCE	
GSE23597	BE	IBD-00874	BESEQ	2	BESPEC	Specimen Type	RNA	PUBLIC SOURCE	
GSE23597	BE	IBD-00874	BESEQ	3	BESPEC	Specimen Type	RNA	PUBLIC SOURCE	
GSE23597	BE	IBD-00874	BESEQ	4	BESPEC	Specimen Type	COLON	PUBLIC SOURCE	
GSE23597	BE	IBD-00874	BESEQ	5	BESPEC	Specimen Type	COLON	PUBLIC SOURCE	
GSE23597	BE	IBD-00874	BESEQ	6	BESPEC	Specimen Type	COLON	PUBLIC SOURCE	
GSE23597	BE	IBD-00875	BESEQ	1	BESPEC	Specimen Type	RNA	PUBLIC SOURCE	
GSE23597	BE	IBD-00875	BESEQ	2	BESPEC	Specimen Type	RNA	PUBLIC SOURCE	
GSE23597	BE	IBD-00875	BESEQ	3	BESPEC	Specimen Type	COLON	PUBLIC SOURCE	
GSE23597	BE	IBD-00875	BESEQ	4	BESPEC	Specimen Type	COLON	PUBLIC SOURCE	
GSE23597	BE	IBD-00876	BESEQ	1	BESPEC	Specimen Type	RNA	PUBLIC SOURCE	
GSE23597	BE	IBD-00876	BESEQ	2	BESPEC	Specimen Type	RNA	PUBLIC SOURCE	
GSE23597	BE	IBD-00876	BESEQ	3	BESPEC	Specimen Type	COLON	PUBLIC SOURCE	
GSE23597	BE	IBD-00876	BESEQ	4	BESPEC	Specimen Type	COLON	PUBLIC SOURCE	
GSE23597	BE	IBD-00877	BESEQ	1	BESPEC	Specimen Type	RNA	PUBLIC SOURCE	
GSE23597	BE	IBD-00877	BESEQ	2	BESPEC	Specimen Type	RNA	PUBLIC SOURCE	
GSE23597	BE	IBD-00877	BESEQ	3	BESPEC	Specimen Type	COLON	PUBLIC SOURCE	
GSE23597	BE	IBD-00877	BESEQ	4	BESPEC	Specimen Type	COLON	PUBLIC SOURCE	
GSE23597	BE	IBD-00878	BESEQ	1	BESPEC	Specimen Type	RNA	PUBLIC SOURCE	
GSE23597	BE	IBD-00878	BESEQ	2	BESPEC	Specimen Type	RNA	PUBLIC SOURCE	
GSE23597	BE	IBD-00878	BESEQ	3	BESPEC	Specimen Type	RNA	PUBLIC SOURCE	
GSE23597	BE	IBD-00878	BESEQ	4	BESPEC	Specimen Type	COLON	PUBLIC SOURCE	
GSE23597	BE	IBD-00878	BESEQ	5	BESPEC	Specimen Type	COLON	PUBLIC SOURCE	
GSE23597	BE	IBD-00878	BESEQ	6	BESPEC	Specimen Type	COLON	PUBLIC SOURCE	
GSE23597	BE	IBD-00879	BESEQ	1	BESPEC	Specimen Type	RNA	PUBLIC SOURCE	
GSE23597	BE	IBD-00879	BESEQ	2	BESPEC	Specimen Type	RNA	PUBLIC SOURCE	
GSE23597	BE	IBD-00879	BESEQ	3	BESPEC	Specimen Type	COLON	PUBLIC SOURCE	
GSE23597	BE	IBD-00879	BESEQ	4	BESPEC	Specimen Type	COLON	PUBLIC SOURCE	
GSE23597	BE	IBD-00880	BESEQ	1	BESPEC	Specimen Type	RNA	PUBLIC SOURCE	
GSE23597	BE	IBD-00880	BESEQ	2	BESPEC	Specimen Type	RNA	PUBLIC SOURCE	
GSE23597	BE	IBD-00880	BESEQ	3	BESPEC	Specimen Type	COLON	PUBLIC SOURCE	
GSE23597	BE	IBD-00880	BESEQ	4	BESPEC	Specimen Type	COLON	PUBLIC SOURCE	
GSE23597	BE	IBD-00881	BESEQ	1	BESPEC	Specimen Type	RNA	PUBLIC SOURCE	
GSE23597	BE	IBD-00881	BESEQ	2	BESPEC	Specimen Type	RNA	PUBLIC SOURCE	
GSE23597	BE	IBD-00881	BESEQ	3	BESPEC	Specimen Type	RNA	PUBLIC SOURCE	
GSE23597	BE	IBD-00881	BESEQ	4	BESPEC	Specimen Type	COLON	PUBLIC SOURCE	
GSE23597	BE	IBD-00881	BESEQ	5	BESPEC	Specimen Type	COLON	PUBLIC SOURCE	
GSE23597	BE	IBD-00881	BESEQ	6	BESPEC	Specimen Type	COLON	PUBLIC SOURCE	
GSE23597	BE	IBD-00882	BESEQ	1	BESPEC	Specimen Type	RNA	PUBLIC SOURCE	
GSE23597	BE	IBD-00882	BESEQ	2	BESPEC	Specimen Type	RNA	PUBLIC SOURCE	
GSE23597	BE	IBD-00882	BESEQ	3	BESPEC	Specimen Type	RNA	PUBLIC SOURCE	
GSE23597	BE	IBD-00882	BESEQ	4	BESPEC	Specimen Type	COLON	PUBLIC SOURCE	
GSE23597	BE	IBD-00882	BESEQ	5	BESPEC	Specimen Type	COLON	PUBLIC SOURCE	
GSE23597	BE	IBD-00882	BESEQ	6	BESPEC	Specimen Type	COLON	PUBLIC SOURCE	
GSE23597	BE	IBD-00883	BESEQ	1	BESPEC	Specimen Type	RNA	PUBLIC SOURCE	
GSE23597	BE	IBD-00883	BESEQ	2	BESPEC	Specimen Type	RNA	PUBLIC SOURCE	
GSE23597	BE	IBD-00883	BESEQ	3	BESPEC	Specimen Type	COLON	PUBLIC SOURCE	
GSE23597	BE	IBD-00883	BESEQ	4	BESPEC	Specimen Type	COLON	PUBLIC SOURCE	
GSE23597	BE	IBD-00884	BESEQ	1	BESPEC	Specimen Type	RNA	PUBLIC SOURCE	
GSE23597	BE	IBD-00884	BESEQ	2	BESPEC	Specimen Type	RNA	PUBLIC SOURCE	
GSE23597	BE	IBD-00884	BESEQ	3	BESPEC	Specimen Type	RNA	PUBLIC SOURCE	
GSE23597	BE	IBD-00884	BESEQ	4	BESPEC	Specimen Type	COLON	PUBLIC SOURCE	
GSE23597	BE	IBD-00884	BESEQ	5	BESPEC	Specimen Type	COLON	PUBLIC SOURCE	
GSE23597	BE	IBD-00884	BESEQ	6	BESPEC	Specimen Type	COLON	PUBLIC SOURCE	
GSE23597	BE	IBD-00885	BESEQ	1	BESPEC	Specimen Type	RNA	PUBLIC SOURCE	
GSE23597	BE	IBD-00885	BESEQ	2	BESPEC	Specimen Type	RNA	PUBLIC SOURCE	
GSE23597	BE	IBD-00885	BESEQ	3	BESPEC	Specimen Type	RNA	PUBLIC SOURCE	
GSE23597	BE	IBD-00885	BESEQ	4	BESPEC	Specimen Type	COLON	PUBLIC SOURCE	
GSE23597	BE	IBD-00885	BESEQ	5	BESPEC	Specimen Type	COLON	PUBLIC SOURCE	
GSE23597	BE	IBD-00885	BESEQ	6	BESPEC	Specimen Type	COLON	PUBLIC SOURCE	
GSE23597	BE	IBD-00886	BESEQ	1	BESPEC	Specimen Type	RNA	PUBLIC SOURCE	
GSE23597	BE	IBD-00886	BESEQ	2	BESPEC	Specimen Type	RNA	PUBLIC SOURCE	
GSE23597	BE	IBD-00886	BESEQ	3	BESPEC	Specimen Type	RNA	PUBLIC SOURCE	
GSE23597	BE	IBD-00886	BESEQ	4	BESPEC	Specimen Type	COLON	PUBLIC SOURCE	
GSE23597	BE	IBD-00886	BESEQ	5	BESPEC	Specimen Type	COLON	PUBLIC SOURCE	
GSE23597	BE	IBD-00886	BESEQ	6	BESPEC	Specimen Type	COLON	PUBLIC SOURCE	
GSE23597	BE	IBD-00887	BESEQ	1	BESPEC	Specimen Type	RNA	PUBLIC SOURCE	
GSE23597	BE	IBD-00887	BESEQ	2	BESPEC	Specimen Type	RNA	PUBLIC SOURCE	
GSE23597	BE	IBD-00887	BESEQ	3	BESPEC	Specimen Type	COLON	PUBLIC SOURCE	
GSE23597	BE	IBD-00887	BESEQ	4	BESPEC	Specimen Type	COLON	PUBLIC SOURCE	
GSE23597	BE	IBD-00888	BESEQ	1	BESPEC	Specimen Type	RNA	PUBLIC SOURCE	
GSE23597	BE	IBD-00888	BESEQ	2	BESPEC	Specimen Type	RNA	PUBLIC SOURCE	
GSE23597	BE	IBD-00888	BESEQ	3	BESPEC	Specimen Type	COLON	PUBLIC SOURCE	
GSE23597	BE	IBD-00888	BESEQ	4	BESPEC	Specimen Type	COLON	PUBLIC SOURCE	
GSE23597	BE	IBD-00889	BESEQ	1	BESPEC	Specimen Type	RNA	PUBLIC SOURCE	
GSE23597	BE	IBD-00889	BESEQ	2	BESPEC	Specimen Type	RNA	PUBLIC SOURCE	
GSE23597	BE	IBD-00889	BESEQ	3	BESPEC	Specimen Type	RNA	PUBLIC SOURCE	
GSE23597	BE	IBD-00889	BESEQ	4	BESPEC	Specimen Type	COLON	PUBLIC SOURCE	
GSE23597	BE	IBD-00889	BESEQ	5	BESPEC	Specimen Type	COLON	PUBLIC SOURCE	
GSE23597	BE	IBD-00889	BESEQ	6	BESPEC	Specimen Type	COLON	PUBLIC SOURCE	
GSE23597	BE	IBD-00890	BESEQ	1	BESPEC	Specimen Type	RNA	PUBLIC SOURCE	
GSE23597	BE	IBD-00890	BESEQ	2	BESPEC	Specimen Type	RNA	PUBLIC SOURCE	
GSE23597	BE	IBD-00890	BESEQ	3	BESPEC	Specimen Type	COLON	PUBLIC SOURCE	
GSE23597	BE	IBD-00890	BESEQ	4	BESPEC	Specimen Type	COLON	PUBLIC SOURCE	
GSE23597	BE	IBD-00891	BESEQ	1	BESPEC	Specimen Type	RNA	PUBLIC SOURCE	
GSE23597	BE	IBD-00891	BESEQ	2	BESPEC	Specimen Type	RNA	PUBLIC SOURCE	
GSE23597	BE	IBD-00891	BESEQ	3	BESPEC	Specimen Type	COLON	PUBLIC SOURCE	
GSE23597	BE	IBD-00891	BESEQ	4	BESPEC	Specimen Type	COLON	PUBLIC SOURCE	
GSE23597	BE	IBD-00892	BESEQ	1	BESPEC	Specimen Type	RNA	PUBLIC SOURCE	
GSE23597	BE	IBD-00892	BESEQ	2	BESPEC	Specimen Type	RNA	PUBLIC SOURCE	
GSE23597	BE	IBD-00892	BESEQ	3	BESPEC	Specimen Type	RNA	PUBLIC SOURCE	
GSE23597	BE	IBD-00892	BESEQ	4	BESPEC	Specimen Type	COLON	PUBLIC SOURCE	
GSE23597	BE	IBD-00892	BESEQ	5	BESPEC	Specimen Type	COLON	PUBLIC SOURCE	
GSE23597	BE	IBD-00892	BESEQ	6	BESPEC	Specimen Type	COLON	PUBLIC SOURCE	
GSE23597	BE	IBD-00893	BESEQ	1	BESPEC	Specimen Type	RNA	PUBLIC SOURCE	
GSE23597	BE	IBD-00893	BESEQ	2	BESPEC	Specimen Type	RNA	PUBLIC SOURCE	
GSE23597	BE	IBD-00893	BESEQ	3	BESPEC	Specimen Type	COLON	PUBLIC SOURCE	
GSE23597	BE	IBD-00893	BESEQ	4	BESPEC	Specimen Type	COLON	PUBLIC SOURCE	
GSE23597	BE	IBD-00894	BESEQ	1	BESPEC	Specimen Type	RNA	PUBLIC SOURCE	
GSE23597	BE	IBD-00894	BESEQ	2	BESPEC	Specimen Type	RNA	PUBLIC SOURCE	
GSE23597	BE	IBD-00894	BESEQ	3	BESPEC	Specimen Type	RNA	PUBLIC SOURCE	
GSE23597	BE	IBD-00894	BESEQ	4	BESPEC	Specimen Type	COLON	PUBLIC SOURCE	
GSE23597	BE	IBD-00894	BESEQ	5	BESPEC	Specimen Type	COLON	PUBLIC SOURCE	
GSE23597	BE	IBD-00894	BESEQ	6	BESPEC	Specimen Type	COLON	PUBLIC SOURCE	
GSE23597	BE	IBD-00895	BESEQ	1	BESPEC	Specimen Type	RNA	PUBLIC SOURCE	
GSE23597	BE	IBD-00895	BESEQ	2	BESPEC	Specimen Type	RNA	PUBLIC SOURCE	
GSE23597	BE	IBD-00895	BESEQ	3	BESPEC	Specimen Type	COLON	PUBLIC SOURCE	
GSE23597	BE	IBD-00895	BESEQ	4	BESPEC	Specimen Type	COLON	PUBLIC SOURCE	
GSE23597	BE	IBD-00896	BESEQ	1	BESPEC	Specimen Type	RNA	PUBLIC SOURCE	
GSE23597	BE	IBD-00896	BESEQ	2	BESPEC	Specimen Type	RNA	PUBLIC SOURCE	
GSE23597	BE	IBD-00896	BESEQ	3	BESPEC	Specimen Type	COLON	PUBLIC SOURCE	
GSE23597	BE	IBD-00896	BESEQ	4	BESPEC	Specimen Type	COLON	PUBLIC SOURCE	
GSE23597	BE	IBD-00897	BESEQ	1	BESPEC	Specimen Type	RNA	PUBLIC SOURCE	
GSE23597	BE	IBD-00897	BESEQ	2	BESPEC	Specimen Type	RNA	PUBLIC SOURCE	
GSE23597	BE	IBD-00897	BESEQ	3	BESPEC	Specimen Type	COLON	PUBLIC SOURCE	
GSE23597	BE	IBD-00897	BESEQ	4	BESPEC	Specimen Type	COLON	PUBLIC SOURCE	
GSE23597	BE	IBD-00898	BESEQ	1	BESPEC	Specimen Type	RNA	PUBLIC SOURCE	
GSE23597	BE	IBD-00898	BESEQ	2	BESPEC	Specimen Type	RNA	PUBLIC SOURCE	
GSE23597	BE	IBD-00898	BESEQ	3	BESPEC	Specimen Type	RNA	PUBLIC SOURCE	
GSE23597	BE	IBD-00898	BESEQ	4	BESPEC	Specimen Type	COLON	PUBLIC SOURCE	
GSE23597	BE	IBD-00898	BESEQ	5	BESPEC	Specimen Type	COLON	PUBLIC SOURCE	
GSE23597	BE	IBD-00898	BESEQ	6	BESPEC	Specimen Type	COLON	PUBLIC SOURCE	
GSE23597	BE	IBD-00899	BESEQ	1	BESPEC	Specimen Type	RNA	PUBLIC SOURCE	
GSE23597	BE	IBD-00899	BESEQ	2	BESPEC	Specimen Type	RNA	PUBLIC SOURCE	
GSE23597	BE	IBD-00899	BESEQ	3	BESPEC	Specimen Type	RNA	PUBLIC SOURCE	
GSE23597	BE	IBD-00899	BESEQ	4	BESPEC	Specimen Type	COLON	PUBLIC SOURCE	
GSE23597	BE	IBD-00899	BESEQ	5	BESPEC	Specimen Type	COLON	PUBLIC SOURCE	
GSE23597	BE	IBD-00899	BESEQ	6	BESPEC	Specimen Type	COLON	PUBLIC SOURCE	
GSE23597	BE	IBD-00900	BESEQ	1	BESPEC	Specimen Type	RNA	PUBLIC SOURCE	
GSE23597	BE	IBD-00900	BESEQ	2	BESPEC	Specimen Type	RNA	PUBLIC SOURCE	
GSE23597	BE	IBD-00900	BESEQ	3	BESPEC	Specimen Type	RNA	PUBLIC SOURCE	
GSE23597	BE	IBD-00900	BESEQ	4	BESPEC	Specimen Type	COLON	PUBLIC SOURCE	
GSE23597	BE	IBD-00900	BESEQ	5	BESPEC	Specimen Type	COLON	PUBLIC SOURCE	
GSE23597	BE	IBD-00900	BESEQ	6	BESPEC	Specimen Type	COLON	PUBLIC SOURCE	
E-MTAB-184	BE	IBD-00904	BESEQ	1	BESPEC	Specimen Type	RNA	PUBLIC SOURCE	
E-MTAB-184	BE	IBD-00904	BESEQ	2	UCSTATUS	Ulcerative Colitis Status	INACTIVE ULCERATIVE COLITIS	PUBLIC SOURCE	
E-MTAB-184	BE	IBD-00904	BESEQ	2	BESPEC	Specimen Type	COLON	PUBLIC SOURCE	
E-MTAB-184	BE	IBD-00905	BESEQ	1	BESPEC	Specimen Type	RNA	PUBLIC SOURCE	
E-MTAB-184	BE	IBD-00905	BESEQ	2	BESPEC	Specimen Type	RNA	PUBLIC SOURCE	
E-MTAB-184	BE	IBD-00905	BESEQ	3	UCSTATUS	Ulcerative Colitis Status	INACTIVE ULCERATIVE COLITIS	PUBLIC SOURCE	
E-MTAB-184	BE	IBD-00905	BESEQ	3	BESPEC	Specimen Type	COLON	PUBLIC SOURCE	
E-MTAB-184	BE	IBD-00905	BESEQ	4	UCSTATUS	Ulcerative Colitis Status	ACTIVE ULCERATIVE COLITIS	PUBLIC SOURCE	
E-MTAB-184	BE	IBD-00905	BESEQ	4	BESPEC	Specimen Type	COLON	PUBLIC SOURCE	
E-MTAB-184	BE	IBD-00906	BESEQ	1	BESPEC	Specimen Type	RNA	PUBLIC SOURCE	
E-MTAB-184	BE	IBD-00906	BESEQ	2	BESPEC	Specimen Type	RNA	PUBLIC SOURCE	
E-MTAB-184	BE	IBD-00906	BESEQ	3	UCSTATUS	Ulcerative Colitis Status	INACTIVE ULCERATIVE COLITIS	PUBLIC SOURCE	
E-MTAB-184	BE	IBD-00906	BESEQ	3	BESPEC	Specimen Type	COLON	PUBLIC SOURCE	
E-MTAB-184	BE	IBD-00906	BESEQ	4	UCSTATUS	Ulcerative Colitis Status	ACTIVE ULCERATIVE COLITIS	PUBLIC SOURCE	
E-MTAB-184	BE	IBD-00906	BESEQ	4	BESPEC	Specimen Type	COLON	PUBLIC SOURCE	
E-MTAB-184	BE	IBD-00908	BESEQ	1	BESPEC	Specimen Type	RNA	PUBLIC SOURCE	
E-MTAB-184	BE	IBD-00908	BESEQ	2	BESPEC	Specimen Type	RNA	PUBLIC SOURCE	
E-MTAB-184	BE	IBD-00908	BESEQ	3	UCSTATUS	Ulcerative Colitis Status	INACTIVE ULCERATIVE COLITIS	PUBLIC SOURCE	
E-MTAB-184	BE	IBD-00908	BESEQ	3	BESPEC	Specimen Type	COLON	PUBLIC SOURCE	
E-MTAB-184	BE	IBD-00908	BESEQ	4	UCSTATUS	Ulcerative Colitis Status	ACTIVE ULCERATIVE COLITIS	PUBLIC SOURCE	
E-MTAB-184	BE	IBD-00908	BESEQ	4	BESPEC	Specimen Type	COLON	PUBLIC SOURCE	
E-MTAB-184	BE	IBD-00909	BESEQ	1	BESPEC	Specimen Type	RNA	PUBLIC SOURCE	
E-MTAB-184	BE	IBD-00909	BESEQ	2	BESPEC	Specimen Type	RNA	PUBLIC SOURCE	
E-MTAB-184	BE	IBD-00909	BESEQ	3	UCSTATUS	Ulcerative Colitis Status	INACTIVE ULCERATIVE COLITIS	PUBLIC SOURCE	
E-MTAB-184	BE	IBD-00909	BESEQ	3	BESPEC	Specimen Type	COLON	PUBLIC SOURCE	
E-MTAB-184	BE	IBD-00909	BESEQ	4	UCSTATUS	Ulcerative Colitis Status	ACTIVE ULCERATIVE COLITIS	PUBLIC SOURCE	
E-MTAB-184	BE	IBD-00909	BESEQ	4	BESPEC	Specimen Type	COLON	PUBLIC SOURCE	
E-MTAB-184	BE	IBD-00910	BESEQ	1	BESPEC	Specimen Type	RNA	PUBLIC SOURCE	
E-MTAB-184	BE	IBD-00910	BESEQ	2	BESPEC	Specimen Type	RNA	PUBLIC SOURCE	
E-MTAB-184	BE	IBD-00910	BESEQ	3	UCSTATUS	Ulcerative Colitis Status	INACTIVE ULCERATIVE COLITIS	PUBLIC SOURCE	
E-MTAB-184	BE	IBD-00910	BESEQ	3	BESPEC	Specimen Type	COLON	PUBLIC SOURCE	
E-MTAB-184	BE	IBD-00910	BESEQ	4	UCSTATUS	Ulcerative Colitis Status	ACTIVE ULCERATIVE COLITIS	PUBLIC SOURCE	
E-MTAB-184	BE	IBD-00910	BESEQ	4	BESPEC	Specimen Type	COLON	PUBLIC SOURCE	
E-MTAB-184	BE	IBD-00911	BESEQ	1	BESPEC	Specimen Type	RNA	PUBLIC SOURCE	
E-MTAB-184	BE	IBD-00911	BESEQ	2	BESPEC	Specimen Type	RNA	PUBLIC SOURCE	
E-MTAB-184	BE	IBD-00911	BESEQ	3	UCSTATUS	Ulcerative Colitis Status	ACTIVE ULCERATIVE COLITIS	PUBLIC SOURCE	
E-MTAB-184	BE	IBD-00911	BESEQ	3	BESPEC	Specimen Type	COLON	PUBLIC SOURCE	
E-MTAB-184	BE	IBD-00911	BESEQ	4	UCSTATUS	Ulcerative Colitis Status	INACTIVE ULCERATIVE COLITIS	PUBLIC SOURCE	
E-MTAB-184	BE	IBD-00911	BESEQ	4	BESPEC	Specimen Type	COLON	PUBLIC SOURCE	
E-MTAB-184	BE	IBD-00912	BESEQ	1	BESPEC	Specimen Type	RNA	PUBLIC SOURCE	
E-MTAB-184	BE	IBD-00912	BESEQ	2	BESPEC	Specimen Type	RNA	PUBLIC SOURCE	
E-MTAB-184	BE	IBD-00912	BESEQ	3	UCSTATUS	Ulcerative Colitis Status	INACTIVE ULCERATIVE COLITIS	PUBLIC SOURCE	
E-MTAB-184	BE	IBD-00912	BESEQ	3	BESPEC	Specimen Type	COLON	PUBLIC SOURCE	
E-MTAB-184	BE	IBD-00912	BESEQ	4	UCSTATUS	Ulcerative Colitis Status	ACTIVE ULCERATIVE COLITIS	PUBLIC SOURCE	
E-MTAB-184	BE	IBD-00912	BESEQ	4	BESPEC	Specimen Type	COLON	PUBLIC SOURCE	
E-MTAB-184	BE	IBD-00913	BESEQ	1	BESPEC	Specimen Type	RNA	PUBLIC SOURCE	
E-MTAB-184	BE	IBD-00913	BESEQ	2	BESPEC	Specimen Type	RNA	PUBLIC SOURCE	
E-MTAB-184	BE	IBD-00913	BESEQ	3	UCSTATUS	Ulcerative Colitis Status	INACTIVE ULCERATIVE COLITIS	PUBLIC SOURCE	
E-MTAB-184	BE	IBD-00913	BESEQ	3	BESPEC	Specimen Type	COLON	PUBLIC SOURCE	
E-MTAB-184	BE	IBD-00913	BESEQ	4	UCSTATUS	Ulcerative Colitis Status	ACTIVE ULCERATIVE COLITIS	PUBLIC SOURCE	
E-MTAB-184	BE	IBD-00913	BESEQ	4	BESPEC	Specimen Type	COLON	PUBLIC SOURCE	
E-MTAB-184	BE	IBD-00914	BESEQ	1	BESPEC	Specimen Type	RNA	PUBLIC SOURCE	
E-MTAB-184	BE	IBD-00914	BESEQ	2	BESPEC	Specimen Type	RNA	PUBLIC SOURCE	
E-MTAB-184	BE	IBD-00914	BESEQ	3	UCSTATUS	Ulcerative Colitis Status	INACTIVE ULCERATIVE COLITIS	PUBLIC SOURCE	
E-MTAB-184	BE	IBD-00914	BESEQ	3	BESPEC	Specimen Type	COLON	PUBLIC SOURCE	
E-MTAB-184	BE	IBD-00914	BESEQ	4	UCSTATUS	Ulcerative Colitis Status	ACTIVE ULCERATIVE COLITIS	PUBLIC SOURCE	
E-MTAB-184	BE	IBD-00914	BESEQ	4	BESPEC	Specimen Type	COLON	PUBLIC SOURCE	
E-MTAB-184	BE	IBD-00915	BESEQ	1	BESPEC	Specimen Type	RNA	PUBLIC SOURCE	
E-MTAB-184	BE	IBD-00915	BESEQ	2	BESPEC	Specimen Type	RNA	PUBLIC SOURCE	
E-MTAB-184	BE	IBD-00915	BESEQ	3	UCSTATUS	Ulcerative Colitis Status	INACTIVE ULCERATIVE COLITIS	PUBLIC SOURCE	
E-MTAB-184	BE	IBD-00915	BESEQ	3	BESPEC	Specimen Type	COLON	PUBLIC SOURCE	
E-MTAB-184	BE	IBD-00915	BESEQ	4	UCSTATUS	Ulcerative Colitis Status	ACTIVE ULCERATIVE COLITIS	PUBLIC SOURCE	
E-MTAB-184	BE	IBD-00915	BESEQ	4	BESPEC	Specimen Type	COLON	PUBLIC SOURCE	
E-MTAB-184	BE	IBD-00916	BESEQ	1	BESPEC	Specimen Type	RNA	PUBLIC SOURCE	
E-MTAB-184	BE	IBD-00916	BESEQ	2	BESPEC	Specimen Type	RNA	PUBLIC SOURCE	
E-MTAB-184	BE	IBD-00916	BESEQ	3	UCSTATUS	Ulcerative Colitis Status	INACTIVE ULCERATIVE COLITIS	PUBLIC SOURCE	
E-MTAB-184	BE	IBD-00916	BESEQ	3	BESPEC	Specimen Type	COLON	PUBLIC SOURCE	
E-MTAB-184	BE	IBD-00916	BESEQ	4	UCSTATUS	Ulcerative Colitis Status	ACTIVE ULCERATIVE COLITIS	PUBLIC SOURCE	
E-MTAB-184	BE	IBD-00916	BESEQ	4	BESPEC	Specimen Type	COLON	PUBLIC SOURCE	
E-MTAB-184	BE	IBD-00917	BESEQ	1	BESPEC	Specimen Type	RNA	PUBLIC SOURCE	
E-MTAB-184	BE	IBD-00917	BESEQ	2	BESPEC	Specimen Type	RNA	PUBLIC SOURCE	
E-MTAB-184	BE	IBD-00917	BESEQ	3	UCSTATUS	Ulcerative Colitis Status	INACTIVE ULCERATIVE COLITIS	PUBLIC SOURCE	
E-MTAB-184	BE	IBD-00917	BESEQ	3	BESPEC	Specimen Type	COLON	PUBLIC SOURCE	
E-MTAB-184	BE	IBD-00917	BESEQ	4	UCSTATUS	Ulcerative Colitis Status	ACTIVE ULCERATIVE COLITIS	PUBLIC SOURCE	
E-MTAB-184	BE	IBD-00917	BESEQ	4	BESPEC	Specimen Type	COLON	PUBLIC SOURCE	
E-MTAB-184	BE	IBD-00918	BESEQ	1	BESPEC	Specimen Type	RNA	PUBLIC SOURCE	
E-MTAB-184	BE	IBD-00918	BESEQ	2	BESPEC	Specimen Type	RNA	PUBLIC SOURCE	
E-MTAB-184	BE	IBD-00918	BESEQ	3	UCSTATUS	Ulcerative Colitis Status	INACTIVE ULCERATIVE COLITIS	PUBLIC SOURCE	
E-MTAB-184	BE	IBD-00918	BESEQ	3	BESPEC	Specimen Type	COLON	PUBLIC SOURCE	
E-MTAB-184	BE	IBD-00918	BESEQ	4	UCSTATUS	Ulcerative Colitis Status	ACTIVE ULCERATIVE COLITIS	PUBLIC SOURCE	
E-MTAB-184	BE	IBD-00918	BESEQ	4	BESPEC	Specimen Type	COLON	PUBLIC SOURCE	
E-MTAB-184	BE	IBD-00919	BESEQ	1	BESPEC	Specimen Type	RNA	PUBLIC SOURCE	
E-MTAB-184	BE	IBD-00919	BESEQ	2	BESPEC	Specimen Type	RNA	PUBLIC SOURCE	
E-MTAB-184	BE	IBD-00919	BESEQ	3	UCSTATUS	Ulcerative Colitis Status	INACTIVE ULCERATIVE COLITIS	PUBLIC SOURCE	
E-MTAB-184	BE	IBD-00919	BESEQ	3	BESPEC	Specimen Type	COLON	PUBLIC SOURCE	
E-MTAB-184	BE	IBD-00919	BESEQ	4	UCSTATUS	Ulcerative Colitis Status	ACTIVE ULCERATIVE COLITIS	PUBLIC SOURCE	
E-MTAB-184	BE	IBD-00919	BESEQ	4	BESPEC	Specimen Type	COLON	PUBLIC SOURCE	
E-MTAB-184	BE	IBD-00920	BESEQ	1	BESPEC	Specimen Type	RNA	PUBLIC SOURCE	
E-MTAB-184	BE	IBD-00920	BESEQ	2	BESPEC	Specimen Type	RNA	PUBLIC SOURCE	
E-MTAB-184	BE	IBD-00920	BESEQ	3	UCSTATUS	Ulcerative Colitis Status	INACTIVE ULCERATIVE COLITIS	PUBLIC SOURCE	
E-MTAB-184	BE	IBD-00920	BESEQ	3	BESPEC	Specimen Type	COLON	PUBLIC SOURCE	
E-MTAB-184	BE	IBD-00920	BESEQ	4	UCSTATUS	Ulcerative Colitis Status	ACTIVE ULCERATIVE COLITIS	PUBLIC SOURCE	
E-MTAB-184	BE	IBD-00920	BESEQ	4	BESPEC	Specimen Type	COLON	PUBLIC SOURCE	
GSE16879	BE	IBD-00921	BESEQ	1	BESPEC	Specimen Type	RNA	PUBLIC SOURCE	
GSE16879	BE	IBD-00921	BESEQ	2	BESPEC	Specimen Type	RNA	PUBLIC SOURCE	
GSE16879	BE	IBD-00921	BESEQ	3	BESPEC	Specimen Type	COLON	PUBLIC SOURCE	
GSE16879	BE	IBD-00921	BESEQ	4	BESPEC	Specimen Type	COLON	PUBLIC SOURCE	
GSE16879	BE	IBD-00922	BESEQ	1	BESPEC	Specimen Type	RNA	PUBLIC SOURCE	
GSE16879	BE	IBD-00922	BESEQ	2	BESPEC	Specimen Type	RNA	PUBLIC SOURCE	
GSE16879	BE	IBD-00922	BESEQ	3	BESPEC	Specimen Type	COLON	PUBLIC SOURCE	
GSE16879	BE	IBD-00922	BESEQ	4	BESPEC	Specimen Type	COLON	PUBLIC SOURCE	
E-MTAB-184	BE	IBD-00923	BESEQ	1	BESPEC	Specimen Type	RNA	PUBLIC SOURCE	
E-MTAB-184	BE	IBD-00923	BESEQ	2	BESPEC	Specimen Type	RNA	PUBLIC SOURCE	
E-MTAB-184	BE	IBD-00923	BESEQ	3	UCSTATUS	Ulcerative Colitis Status	INACTIVE ULCERATIVE COLITIS	PUBLIC SOURCE	
E-MTAB-184	BE	IBD-00923	BESEQ	3	BESPEC	Specimen Type	COLON	PUBLIC SOURCE	
E-MTAB-184	BE	IBD-00923	BESEQ	4	UCSTATUS	Ulcerative Colitis Status	ACTIVE ULCERATIVE COLITIS	PUBLIC SOURCE	
E-MTAB-184	BE	IBD-00923	BESEQ	4	BESPEC	Specimen Type	COLON	PUBLIC SOURCE	
GSE16879	BE	IBD-00924	BESEQ	1	BESPEC	Specimen Type	RNA	PUBLIC SOURCE	
GSE16879	BE	IBD-00924	BESEQ	2	BESPEC	Specimen Type	RNA	PUBLIC SOURCE	
GSE16879	BE	IBD-00924	BESEQ	3	BESPEC	Specimen Type	COLON	PUBLIC SOURCE	
GSE16879	BE	IBD-00924	BESEQ	4	BESPEC	Specimen Type	COLON	PUBLIC SOURCE	
E-MTAB-184	BE	IBD-00925	BESEQ	1	BESPEC	Specimen Type	RNA	PUBLIC SOURCE	
E-MTAB-184	BE	IBD-00925	BESEQ	2	BESPEC	Specimen Type	RNA	PUBLIC SOURCE	
E-MTAB-184	BE	IBD-00925	BESEQ	3	UCSTATUS	Ulcerative Colitis Status	ACTIVE ULCERATIVE COLITIS	PUBLIC SOURCE	
E-MTAB-184	BE	IBD-00925	BESEQ	3	BESPEC	Specimen Type	COLON	PUBLIC SOURCE	
E-MTAB-184	BE	IBD-00925	BESEQ	4	UCSTATUS	Ulcerative Colitis Status	INACTIVE ULCERATIVE COLITIS	PUBLIC SOURCE	
E-MTAB-184	BE	IBD-00925	BESEQ	4	BESPEC	Specimen Type	COLON	PUBLIC SOURCE	
GSE16879	BE	IBD-00926	BESEQ	1	BESPEC	Specimen Type	RNA	PUBLIC SOURCE	
GSE16879	BE	IBD-00926	BESEQ	2	BESPEC	Specimen Type	RNA	PUBLIC SOURCE	
GSE16879	BE	IBD-00926	BESEQ	3	BESPEC	Specimen Type	COLON	PUBLIC SOURCE	
GSE16879	BE	IBD-00926	BESEQ	4	BESPEC	Specimen Type	COLON	PUBLIC SOURCE	
GSE16879	BE	IBD-00927	BESEQ	1	BESPEC	Specimen Type	RNA	PUBLIC SOURCE	
GSE16879	BE	IBD-00927	BESEQ	2	BESPEC	Specimen Type	RNA	PUBLIC SOURCE	
GSE16879	BE	IBD-00927	BESEQ	3	BESPEC	Specimen Type	COLON	PUBLIC SOURCE	
GSE16879	BE	IBD-00927	BESEQ	4	BESPEC	Specimen Type	COLON	PUBLIC SOURCE	
GSE16879	BE	IBD-00928	BESEQ	1	BESPEC	Specimen Type	RNA	PUBLIC SOURCE	
GSE16879	BE	IBD-00928	BESEQ	2	BESPEC	Specimen Type	RNA	PUBLIC SOURCE	
GSE16879	BE	IBD-00928	BESEQ	3	BESPEC	Specimen Type	COLON	PUBLIC SOURCE	
GSE16879	BE	IBD-00928	BESEQ	4	BESPEC	Specimen Type	COLON	PUBLIC SOURCE	
GSE16879	BE	IBD-00929	BESEQ	1	BESPEC	Specimen Type	RNA	PUBLIC SOURCE	
GSE16879	BE	IBD-00929	BESEQ	2	BESPEC	Specimen Type	RNA	PUBLIC SOURCE	
GSE16879	BE	IBD-00929	BESEQ	3	BESPEC	Specimen Type	COLON	PUBLIC SOURCE	
GSE16879	BE	IBD-00929	BESEQ	4	BESPEC	Specimen Type	COLON	PUBLIC SOURCE	
GSE16879	BE	IBD-00930	BESEQ	1	BESPEC	Specimen Type	RNA	PUBLIC SOURCE	
GSE16879	BE	IBD-00930	BESEQ	2	BESPEC	Specimen Type	RNA	PUBLIC SOURCE	
GSE16879	BE	IBD-00930	BESEQ	3	BESPEC	Specimen Type	COLON	PUBLIC SOURCE	
GSE16879	BE	IBD-00930	BESEQ	4	BESPEC	Specimen Type	COLON	PUBLIC SOURCE	
E-MTAB-184	BE	IBD-00931	BESEQ	1	BESPEC	Specimen Type	RNA	PUBLIC SOURCE	
E-MTAB-184	BE	IBD-00931	BESEQ	2	BESPEC	Specimen Type	RNA	PUBLIC SOURCE	
E-MTAB-184	BE	IBD-00931	BESEQ	3	UCSTATUS	Ulcerative Colitis Status	INACTIVE ULCERATIVE COLITIS	PUBLIC SOURCE	
E-MTAB-184	BE	IBD-00931	BESEQ	3	BESPEC	Specimen Type	COLON	PUBLIC SOURCE	
E-MTAB-184	BE	IBD-00931	BESEQ	4	UCSTATUS	Ulcerative Colitis Status	ACTIVE ULCERATIVE COLITIS	PUBLIC SOURCE	
E-MTAB-184	BE	IBD-00931	BESEQ	4	BESPEC	Specimen Type	COLON	PUBLIC SOURCE	
GSE16879	BE	IBD-00932	BESEQ	1	BESPEC	Specimen Type	RNA	PUBLIC SOURCE	
GSE16879	BE	IBD-00932	BESEQ	2	BESPEC	Specimen Type	RNA	PUBLIC SOURCE	
GSE16879	BE	IBD-00932	BESEQ	3	BESPEC	Specimen Type	COLON	PUBLIC SOURCE	
GSE16879	BE	IBD-00932	BESEQ	4	BESPEC	Specimen Type	COLON	PUBLIC SOURCE	
GSE16879	BE	IBD-00933	BESEQ	1	BESPEC	Specimen Type	RNA	PUBLIC SOURCE	
GSE16879	BE	IBD-00933	BESEQ	2	BESPEC	Specimen Type	RNA	PUBLIC SOURCE	
GSE16879	BE	IBD-00933	BESEQ	3	BESPEC	Specimen Type	COLON	PUBLIC SOURCE	
GSE16879	BE	IBD-00933	BESEQ	4	BESPEC	Specimen Type	COLON	PUBLIC SOURCE	
E-MTAB-184	BE	IBD-00934	BESEQ	1	BESPEC	Specimen Type	RNA	PUBLIC SOURCE	
E-MTAB-184	BE	IBD-00934	BESEQ	2	BESPEC	Specimen Type	RNA	PUBLIC SOURCE	
E-MTAB-184	BE	IBD-00934	BESEQ	3	UCSTATUS	Ulcerative Colitis Status	INACTIVE ULCERATIVE COLITIS	PUBLIC SOURCE	
E-MTAB-184	BE	IBD-00934	BESEQ	3	BESPEC	Specimen Type	COLON	PUBLIC SOURCE	
E-MTAB-184	BE	IBD-00934	BESEQ	4	UCSTATUS	Ulcerative Colitis Status	ACTIVE ULCERATIVE COLITIS	PUBLIC SOURCE	
E-MTAB-184	BE	IBD-00934	BESEQ	4	BESPEC	Specimen Type	COLON	PUBLIC SOURCE	
GSE16879	BE	IBD-00935	BESEQ	1	BESPEC	Specimen Type	RNA	PUBLIC SOURCE	
GSE16879	BE	IBD-00935	BESEQ	2	BESPEC	Specimen Type	RNA	PUBLIC SOURCE	
GSE16879	BE	IBD-00935	BESEQ	3	BESPEC	Specimen Type	COLON	PUBLIC SOURCE	
GSE16879	BE	IBD-00935	BESEQ	4	BESPEC	Specimen Type	COLON	PUBLIC SOURCE	
GSE16879	BE	IBD-00936	BESEQ	1	BESPEC	Specimen Type	RNA	PUBLIC SOURCE	
GSE16879	BE	IBD-00936	BESEQ	2	BESPEC	Specimen Type	RNA	PUBLIC SOURCE	
GSE16879	BE	IBD-00936	BESEQ	3	BESPEC	Specimen Type	COLON	PUBLIC SOURCE	
GSE16879	BE	IBD-00936	BESEQ	4	BESPEC	Specimen Type	COLON	PUBLIC SOURCE	
GSE16879	BE	IBD-00937	BESEQ	1	BESPEC	Specimen Type	RNA	PUBLIC SOURCE	
GSE16879	BE	IBD-00937	BESEQ	2	BESPEC	Specimen Type	RNA	PUBLIC SOURCE	
GSE16879	BE	IBD-00937	BESEQ	3	BESPEC	Specimen Type	COLON	PUBLIC SOURCE	
GSE16879	BE	IBD-00937	BESEQ	4	BESPEC	Specimen Type	COLON	PUBLIC SOURCE	
GSE16879	BE	IBD-00938	BESEQ	1	BESPEC	Specimen Type	RNA	PUBLIC SOURCE	
GSE16879	BE	IBD-00938	BESEQ	2	BESPEC	Specimen Type	RNA	PUBLIC SOURCE	
GSE16879	BE	IBD-00938	BESEQ	3	BESPEC	Specimen Type	COLON	PUBLIC SOURCE	
GSE16879	BE	IBD-00938	BESEQ	4	BESPEC	Specimen Type	COLON	PUBLIC SOURCE	
GSE16879	BE	IBD-00939	BESEQ	1	BESPEC	Specimen Type	RNA	PUBLIC SOURCE	
GSE16879	BE	IBD-00939	BESEQ	2	BESPEC	Specimen Type	RNA	PUBLIC SOURCE	
GSE16879	BE	IBD-00939	BESEQ	3	BESPEC	Specimen Type	COLON	PUBLIC SOURCE	
GSE16879	BE	IBD-00939	BESEQ	4	BESPEC	Specimen Type	COLON	PUBLIC SOURCE	
GSE16879	BE	IBD-00940	BESEQ	1	BESPEC	Specimen Type	RNA	PUBLIC SOURCE	
GSE16879	BE	IBD-00940	BESEQ	2	BESPEC	Specimen Type	RNA	PUBLIC SOURCE	
GSE16879	BE	IBD-00940	BESEQ	3	BESPEC	Specimen Type	COLON	PUBLIC SOURCE	
GSE16879	BE	IBD-00940	BESEQ	4	BESPEC	Specimen Type	COLON	PUBLIC SOURCE	
GSE16879	BE	IBD-00941	BESEQ	1	BESPEC	Specimen Type	RNA	PUBLIC SOURCE	
GSE16879	BE	IBD-00941	BESEQ	2	BESPEC	Specimen Type	RNA	PUBLIC SOURCE	
GSE16879	BE	IBD-00941	BESEQ	3	BESPEC	Specimen Type	COLON	PUBLIC SOURCE	
GSE16879	BE	IBD-00941	BESEQ	4	BESPEC	Specimen Type	COLON	PUBLIC SOURCE	
GSE16879	BE	IBD-00942	BESEQ	1	BESPEC	Specimen Type	RNA	PUBLIC SOURCE	
GSE16879	BE	IBD-00942	BESEQ	2	BESPEC	Specimen Type	RNA	PUBLIC SOURCE	
GSE16879	BE	IBD-00942	BESEQ	3	BESPEC	Specimen Type	COLON	PUBLIC SOURCE	
GSE16879	BE	IBD-00942	BESEQ	4	BESPEC	Specimen Type	COLON	PUBLIC SOURCE	
E-MTAB-184	BE	IBD-00943	BESEQ	1	BESPEC	Specimen Type	RNA	PUBLIC SOURCE	
E-MTAB-184	BE	IBD-00943	BESEQ	2	BESPEC	Specimen Type	RNA	PUBLIC SOURCE	
E-MTAB-184	BE	IBD-00943	BESEQ	3	UCSTATUS	Ulcerative Colitis Status	INACTIVE ULCERATIVE COLITIS	PUBLIC SOURCE	
E-MTAB-184	BE	IBD-00943	BESEQ	3	BESPEC	Specimen Type	COLON	PUBLIC SOURCE	
E-MTAB-184	BE	IBD-00943	BESEQ	4	UCSTATUS	Ulcerative Colitis Status	ACTIVE ULCERATIVE COLITIS	PUBLIC SOURCE	
E-MTAB-184	BE	IBD-00943	BESEQ	4	BESPEC	Specimen Type	COLON	PUBLIC SOURCE	
GSE16879	BE	IBD-00944	BESEQ	1	BESPEC	Specimen Type	RNA	PUBLIC SOURCE	
GSE16879	BE	IBD-00944	BESEQ	2	BESPEC	Specimen Type	RNA	PUBLIC SOURCE	
GSE16879	BE	IBD-00944	BESEQ	3	BESPEC	Specimen Type	COLON	PUBLIC SOURCE	
GSE16879	BE	IBD-00944	BESEQ	4	BESPEC	Specimen Type	COLON	PUBLIC SOURCE	
GSE16879	BE	IBD-00945	BESEQ	1	BESPEC	Specimen Type	RNA	PUBLIC SOURCE	
GSE16879	BE	IBD-00945	BESEQ	2	BESPEC	Specimen Type	RNA	PUBLIC SOURCE	
GSE16879	BE	IBD-00945	BESEQ	3	BESPEC	Specimen Type	COLON	PUBLIC SOURCE	
GSE16879	BE	IBD-00945	BESEQ	4	BESPEC	Specimen Type	COLON	PUBLIC SOURCE	
GSE16879	BE	IBD-00946	BESEQ	1	BESPEC	Specimen Type	RNA	PUBLIC SOURCE	
GSE16879	BE	IBD-00946	BESEQ	2	BESPEC	Specimen Type	RNA	PUBLIC SOURCE	
GSE16879	BE	IBD-00946	BESEQ	3	BESPEC	Specimen Type	COLON	PUBLIC SOURCE	
GSE16879	BE	IBD-00946	BESEQ	4	BESPEC	Specimen Type	COLON	PUBLIC SOURCE	
GSE16879	BE	IBD-00947	BESEQ	1	BESPEC	Specimen Type	RNA	PUBLIC SOURCE	
GSE16879	BE	IBD-00947	BESEQ	2	BESPEC	Specimen Type	RNA	PUBLIC SOURCE	
GSE16879	BE	IBD-00947	BESEQ	3	BESPEC	Specimen Type	COLON	PUBLIC SOURCE	
GSE16879	BE	IBD-00947	BESEQ	4	BESPEC	Specimen Type	COLON	PUBLIC SOURCE	
GSE16879	BE	IBD-00948	BESEQ	1	BESPEC	Specimen Type	RNA	PUBLIC SOURCE	
GSE16879	BE	IBD-00948	BESEQ	2	BESPEC	Specimen Type	RNA	PUBLIC SOURCE	
GSE16879	BE	IBD-00948	BESEQ	3	BESPEC	Specimen Type	COLON	PUBLIC SOURCE	
GSE16879	BE	IBD-00948	BESEQ	4	BESPEC	Specimen Type	COLON	PUBLIC SOURCE	
GSE16879	BE	IBD-00949	BESEQ	1	BESPEC	Specimen Type	RNA	PUBLIC SOURCE	
GSE16879	BE	IBD-00949	BESEQ	2	BESPEC	Specimen Type	RNA	PUBLIC SOURCE	
GSE16879	BE	IBD-00949	BESEQ	3	BESPEC	Specimen Type	COLON	PUBLIC SOURCE	
GSE16879	BE	IBD-00949	BESEQ	4	BESPEC	Specimen Type	COLON	PUBLIC SOURCE	
E-MTAB-184	BE	IBD-00950	BESEQ	1	BESPEC	Specimen Type	RNA	PUBLIC SOURCE	
E-MTAB-184	BE	IBD-00950	BESEQ	2	BESPEC	Specimen Type	RNA	PUBLIC SOURCE	
E-MTAB-184	BE	IBD-00950	BESEQ	3	UCSTATUS	Ulcerative Colitis Status	INACTIVE ULCERATIVE COLITIS	PUBLIC SOURCE	
E-MTAB-184	BE	IBD-00950	BESEQ	3	BESPEC	Specimen Type	COLON	PUBLIC SOURCE	
E-MTAB-184	BE	IBD-00950	BESEQ	4	UCSTATUS	Ulcerative Colitis Status	ACTIVE ULCERATIVE COLITIS	PUBLIC SOURCE	
E-MTAB-184	BE	IBD-00950	BESEQ	4	BESPEC	Specimen Type	COLON	PUBLIC SOURCE	
E-MTAB-184	BE	IBD-00951	BESEQ	1	BESPEC	Specimen Type	RNA	PUBLIC SOURCE	
E-MTAB-184	BE	IBD-00951	BESEQ	2	BESPEC	Specimen Type	RNA	PUBLIC SOURCE	
E-MTAB-184	BE	IBD-00951	BESEQ	3	UCSTATUS	Ulcerative Colitis Status	INACTIVE ULCERATIVE COLITIS	PUBLIC SOURCE	
E-MTAB-184	BE	IBD-00951	BESEQ	3	BESPEC	Specimen Type	COLON	PUBLIC SOURCE	
E-MTAB-184	BE	IBD-00951	BESEQ	4	UCSTATUS	Ulcerative Colitis Status	ACTIVE ULCERATIVE COLITIS	PUBLIC SOURCE	
E-MTAB-184	BE	IBD-00951	BESEQ	4	BESPEC	Specimen Type	COLON	PUBLIC SOURCE	
E-MTAB-184	BE	IBD-00952	BESEQ	1	BESPEC	Specimen Type	RNA	PUBLIC SOURCE	
E-MTAB-184	BE	IBD-00952	BESEQ	2	BESPEC	Specimen Type	RNA	PUBLIC SOURCE	
E-MTAB-184	BE	IBD-00952	BESEQ	3	UCSTATUS	Ulcerative Colitis Status	INACTIVE ULCERATIVE COLITIS	PUBLIC SOURCE	
E-MTAB-184	BE	IBD-00952	BESEQ	3	BESPEC	Specimen Type	COLON	PUBLIC SOURCE	
E-MTAB-184	BE	IBD-00952	BESEQ	4	UCSTATUS	Ulcerative Colitis Status	ACTIVE ULCERATIVE COLITIS	PUBLIC SOURCE	
E-MTAB-184	BE	IBD-00952	BESEQ	4	BESPEC	Specimen Type	COLON	PUBLIC SOURCE	
E-MTAB-184	BE	IBD-00953	BESEQ	1	BESPEC	Specimen Type	RNA	PUBLIC SOURCE	
E-MTAB-184	BE	IBD-00953	BESEQ	2	BESPEC	Specimen Type	RNA	PUBLIC SOURCE	
E-MTAB-184	BE	IBD-00953	BESEQ	3	UCSTATUS	Ulcerative Colitis Status	INACTIVE ULCERATIVE COLITIS	PUBLIC SOURCE	
E-MTAB-184	BE	IBD-00953	BESEQ	3	BESPEC	Specimen Type	COLON	PUBLIC SOURCE	
E-MTAB-184	BE	IBD-00953	BESEQ	4	UCSTATUS	Ulcerative Colitis Status	ACTIVE ULCERATIVE COLITIS	PUBLIC SOURCE	
E-MTAB-184	BE	IBD-00953	BESEQ	4	BESPEC	Specimen Type	COLON	PUBLIC SOURCE	
E-MTAB-184	BE	IBD-00954	BESEQ	1	BESPEC	Specimen Type	RNA	PUBLIC SOURCE	
E-MTAB-184	BE	IBD-00954	BESEQ	2	BESPEC	Specimen Type	RNA	PUBLIC SOURCE	
E-MTAB-184	BE	IBD-00954	BESEQ	3	UCSTATUS	Ulcerative Colitis Status	ACTIVE ULCERATIVE COLITIS	PUBLIC SOURCE	
E-MTAB-184	BE	IBD-00954	BESEQ	3	BESPEC	Specimen Type	COLON	PUBLIC SOURCE	
E-MTAB-184	BE	IBD-00954	BESEQ	4	UCSTATUS	Ulcerative Colitis Status	INACTIVE ULCERATIVE COLITIS	PUBLIC SOURCE	
E-MTAB-184	BE	IBD-00954	BESEQ	4	BESPEC	Specimen Type	COLON	PUBLIC SOURCE	
E-MTAB-184	BE	IBD-00955	BESEQ	1	BESPEC	Specimen Type	RNA	PUBLIC SOURCE	
E-MTAB-184	BE	IBD-00955	BESEQ	2	BESPEC	Specimen Type	RNA	PUBLIC SOURCE	
E-MTAB-184	BE	IBD-00955	BESEQ	3	UCSTATUS	Ulcerative Colitis Status	INACTIVE ULCERATIVE COLITIS	PUBLIC SOURCE	
E-MTAB-184	BE	IBD-00955	BESEQ	3	BESPEC	Specimen Type	COLON	PUBLIC SOURCE	
E-MTAB-184	BE	IBD-00955	BESEQ	4	UCSTATUS	Ulcerative Colitis Status	ACTIVE ULCERATIVE COLITIS	PUBLIC SOURCE	
E-MTAB-184	BE	IBD-00955	BESEQ	4	BESPEC	Specimen Type	COLON	PUBLIC SOURCE	
E-MTAB-184	BE	IBD-00956	BESEQ	1	BESPEC	Specimen Type	RNA	PUBLIC SOURCE	
E-MTAB-184	BE	IBD-00956	BESEQ	2	BESPEC	Specimen Type	RNA	PUBLIC SOURCE	
E-MTAB-184	BE	IBD-00956	BESEQ	3	UCSTATUS	Ulcerative Colitis Status	INACTIVE ULCERATIVE COLITIS	PUBLIC SOURCE	
E-MTAB-184	BE	IBD-00956	BESEQ	3	BESPEC	Specimen Type	COLON	PUBLIC SOURCE	
E-MTAB-184	BE	IBD-00956	BESEQ	4	UCSTATUS	Ulcerative Colitis Status	ACTIVE ULCERATIVE COLITIS	PUBLIC SOURCE	
E-MTAB-184	BE	IBD-00956	BESEQ	4	BESPEC	Specimen Type	COLON	PUBLIC SOURCE	
E-MTAB-184	BE	IBD-00957	BESEQ	1	BESPEC	Specimen Type	RNA	PUBLIC SOURCE	
E-MTAB-184	BE	IBD-00957	BESEQ	2	BESPEC	Specimen Type	RNA	PUBLIC SOURCE	
E-MTAB-184	BE	IBD-00957	BESEQ	3	UCSTATUS	Ulcerative Colitis Status	INACTIVE ULCERATIVE COLITIS	PUBLIC SOURCE	
E-MTAB-184	BE	IBD-00957	BESEQ	3	BESPEC	Specimen Type	COLON	PUBLIC SOURCE	
E-MTAB-184	BE	IBD-00957	BESEQ	4	UCSTATUS	Ulcerative Colitis Status	ACTIVE ULCERATIVE COLITIS	PUBLIC SOURCE	
E-MTAB-184	BE	IBD-00957	BESEQ	4	BESPEC	Specimen Type	COLON	PUBLIC SOURCE	
E-MTAB-184	BE	IBD-00959	BESEQ	1	BESPEC	Specimen Type	RNA	PUBLIC SOURCE	
E-MTAB-184	BE	IBD-00959	BESEQ	2	BESPEC	Specimen Type	RNA	PUBLIC SOURCE	
E-MTAB-184	BE	IBD-00959	BESEQ	3	UCSTATUS	Ulcerative Colitis Status	INACTIVE ULCERATIVE COLITIS	PUBLIC SOURCE	
E-MTAB-184	BE	IBD-00959	BESEQ	3	BESPEC	Specimen Type	COLON	PUBLIC SOURCE	
E-MTAB-184	BE	IBD-00959	BESEQ	4	UCSTATUS	Ulcerative Colitis Status	ACTIVE ULCERATIVE COLITIS	PUBLIC SOURCE	
E-MTAB-184	BE	IBD-00959	BESEQ	4	BESPEC	Specimen Type	COLON	PUBLIC SOURCE	
E-MTAB-184	BE	IBD-00961	BESEQ	1	BESPEC	Specimen Type	RNA	PUBLIC SOURCE	
E-MTAB-184	BE	IBD-00961	BESEQ	2	BESPEC	Specimen Type	RNA	PUBLIC SOURCE	
E-MTAB-184	BE	IBD-00961	BESEQ	3	UCSTATUS	Ulcerative Colitis Status	INACTIVE ULCERATIVE COLITIS	PUBLIC SOURCE	
E-MTAB-184	BE	IBD-00961	BESEQ	3	BESPEC	Specimen Type	COLON	PUBLIC SOURCE	
E-MTAB-184	BE	IBD-00961	BESEQ	4	UCSTATUS	Ulcerative Colitis Status	ACTIVE ULCERATIVE COLITIS	PUBLIC SOURCE	
E-MTAB-184	BE	IBD-00961	BESEQ	4	BESPEC	Specimen Type	COLON	PUBLIC SOURCE	
E-MTAB-184	BE	IBD-00963	BESEQ	1	BESPEC	Specimen Type	RNA	PUBLIC SOURCE	
E-MTAB-184	BE	IBD-00963	BESEQ	2	BESPEC	Specimen Type	RNA	PUBLIC SOURCE	
E-MTAB-184	BE	IBD-00963	BESEQ	3	UCSTATUS	Ulcerative Colitis Status	INACTIVE ULCERATIVE COLITIS	PUBLIC SOURCE	
E-MTAB-184	BE	IBD-00963	BESEQ	3	BESPEC	Specimen Type	COLON	PUBLIC SOURCE	
E-MTAB-184	BE	IBD-00963	BESEQ	4	UCSTATUS	Ulcerative Colitis Status	ACTIVE ULCERATIVE COLITIS	PUBLIC SOURCE	
E-MTAB-184	BE	IBD-00963	BESEQ	4	BESPEC	Specimen Type	COLON	PUBLIC SOURCE	
E-MTAB-184	BE	IBD-00965	BESEQ	1	BESPEC	Specimen Type	RNA	PUBLIC SOURCE	
E-MTAB-184	BE	IBD-00965	BESEQ	2	BESPEC	Specimen Type	RNA	PUBLIC SOURCE	
E-MTAB-184	BE	IBD-00965	BESEQ	3	UCSTATUS	Ulcerative Colitis Status	ACTIVE ULCERATIVE COLITIS	PUBLIC SOURCE	
E-MTAB-184	BE	IBD-00965	BESEQ	3	BESPEC	Specimen Type	COLON	PUBLIC SOURCE	
E-MTAB-184	BE	IBD-00965	BESEQ	4	UCSTATUS	Ulcerative Colitis Status	INACTIVE ULCERATIVE COLITIS	PUBLIC SOURCE	
E-MTAB-184	BE	IBD-00965	BESEQ	4	BESPEC	Specimen Type	COLON	PUBLIC SOURCE	
E-MTAB-184	BE	IBD-00967	BESEQ	1	BESPEC	Specimen Type	RNA	PUBLIC SOURCE	
E-MTAB-184	BE	IBD-00967	BESEQ	2	BESPEC	Specimen Type	RNA	PUBLIC SOURCE	
E-MTAB-184	BE	IBD-00967	BESEQ	3	UCSTATUS	Ulcerative Colitis Status	INACTIVE ULCERATIVE COLITIS	PUBLIC SOURCE	
E-MTAB-184	BE	IBD-00967	BESEQ	3	BESPEC	Specimen Type	COLON	PUBLIC SOURCE	
E-MTAB-184	BE	IBD-00967	BESEQ	4	UCSTATUS	Ulcerative Colitis Status	ACTIVE ULCERATIVE COLITIS	PUBLIC SOURCE	
E-MTAB-184	BE	IBD-00967	BESEQ	4	BESPEC	Specimen Type	COLON	PUBLIC SOURCE	
E-MTAB-184	BE	IBD-00970	BESEQ	1	BESPEC	Specimen Type	RNA	PUBLIC SOURCE	
E-MTAB-184	BE	IBD-00970	BESEQ	2	BESPEC	Specimen Type	RNA	PUBLIC SOURCE	
E-MTAB-184	BE	IBD-00970	BESEQ	3	UCSTATUS	Ulcerative Colitis Status	INACTIVE ULCERATIVE COLITIS	PUBLIC SOURCE	
E-MTAB-184	BE	IBD-00970	BESEQ	3	BESPEC	Specimen Type	COLON	PUBLIC SOURCE	
E-MTAB-184	BE	IBD-00970	BESEQ	4	UCSTATUS	Ulcerative Colitis Status	ACTIVE ULCERATIVE COLITIS	PUBLIC SOURCE	
E-MTAB-184	BE	IBD-00970	BESEQ	4	BESPEC	Specimen Type	COLON	PUBLIC SOURCE	
E-MTAB-184	BE	IBD-00971	BESEQ	1	BESPEC	Specimen Type	RNA	PUBLIC SOURCE	
E-MTAB-184	BE	IBD-00971	BESEQ	2	BESPEC	Specimen Type	RNA	PUBLIC SOURCE	
E-MTAB-184	BE	IBD-00971	BESEQ	3	UCSTATUS	Ulcerative Colitis Status	INACTIVE ULCERATIVE COLITIS	PUBLIC SOURCE	
E-MTAB-184	BE	IBD-00971	BESEQ	3	BESPEC	Specimen Type	COLON	PUBLIC SOURCE	
E-MTAB-184	BE	IBD-00971	BESEQ	4	UCSTATUS	Ulcerative Colitis Status	ACTIVE ULCERATIVE COLITIS	PUBLIC SOURCE	
E-MTAB-184	BE	IBD-00971	BESEQ	4	BESPEC	Specimen Type	COLON	PUBLIC SOURCE	
E-MTAB-184	BE	IBD-00973	BESEQ	1	BESPEC	Specimen Type	RNA	PUBLIC SOURCE	
E-MTAB-184	BE	IBD-00973	BESEQ	2	BESPEC	Specimen Type	RNA	PUBLIC SOURCE	
E-MTAB-184	BE	IBD-00973	BESEQ	3	UCSTATUS	Ulcerative Colitis Status	INACTIVE ULCERATIVE COLITIS	PUBLIC SOURCE	
E-MTAB-184	BE	IBD-00973	BESEQ	3	BESPEC	Specimen Type	COLON	PUBLIC SOURCE	
E-MTAB-184	BE	IBD-00973	BESEQ	4	UCSTATUS	Ulcerative Colitis Status	ACTIVE ULCERATIVE COLITIS	PUBLIC SOURCE	
E-MTAB-184	BE	IBD-00973	BESEQ	4	BESPEC	Specimen Type	COLON	PUBLIC SOURCE	
E-MTAB-184	BE	IBD-00974	BESEQ	1	BESPEC	Specimen Type	RNA	PUBLIC SOURCE	
E-MTAB-184	BE	IBD-00974	BESEQ	2	BESPEC	Specimen Type	RNA	PUBLIC SOURCE	
E-MTAB-184	BE	IBD-00974	BESEQ	3	UCSTATUS	Ulcerative Colitis Status	INACTIVE ULCERATIVE COLITIS	PUBLIC SOURCE	
E-MTAB-184	BE	IBD-00974	BESEQ	3	BESPEC	Specimen Type	COLON	PUBLIC SOURCE	
E-MTAB-184	BE	IBD-00974	BESEQ	4	UCSTATUS	Ulcerative Colitis Status	ACTIVE ULCERATIVE COLITIS	PUBLIC SOURCE	
E-MTAB-184	BE	IBD-00974	BESEQ	4	BESPEC	Specimen Type	COLON	PUBLIC SOURCE	
E-MTAB-184	BE	IBD-00977	BESEQ	1	BESPEC	Specimen Type	RNA	PUBLIC SOURCE	
E-MTAB-184	BE	IBD-00977	BESEQ	2	BESPEC	Specimen Type	RNA	PUBLIC SOURCE	
E-MTAB-184	BE	IBD-00977	BESEQ	3	UCSTATUS	Ulcerative Colitis Status	INACTIVE ULCERATIVE COLITIS	PUBLIC SOURCE	
E-MTAB-184	BE	IBD-00977	BESEQ	3	BESPEC	Specimen Type	COLON	PUBLIC SOURCE	
E-MTAB-184	BE	IBD-00977	BESEQ	4	UCSTATUS	Ulcerative Colitis Status	ACTIVE ULCERATIVE COLITIS	PUBLIC SOURCE	
E-MTAB-184	BE	IBD-00977	BESEQ	4	BESPEC	Specimen Type	COLON	PUBLIC SOURCE	
E-MTAB-184	BE	IBD-00979	BESEQ	1	BESPEC	Specimen Type	RNA	PUBLIC SOURCE	
E-MTAB-184	BE	IBD-00979	BESEQ	2	BESPEC	Specimen Type	RNA	PUBLIC SOURCE	
E-MTAB-184	BE	IBD-00979	BESEQ	3	UCSTATUS	Ulcerative Colitis Status	INACTIVE ULCERATIVE COLITIS	PUBLIC SOURCE	
E-MTAB-184	BE	IBD-00979	BESEQ	3	BESPEC	Specimen Type	COLON	PUBLIC SOURCE	
E-MTAB-184	BE	IBD-00979	BESEQ	4	UCSTATUS	Ulcerative Colitis Status	ACTIVE ULCERATIVE COLITIS	PUBLIC SOURCE	
E-MTAB-184	BE	IBD-00979	BESEQ	4	BESPEC	Specimen Type	COLON	PUBLIC SOURCE	
E-MTAB-184	BE	IBD-00982	BESEQ	1	BESPEC	Specimen Type	RNA	PUBLIC SOURCE	
E-MTAB-184	BE	IBD-00982	BESEQ	2	BESPEC	Specimen Type	RNA	PUBLIC SOURCE	
E-MTAB-184	BE	IBD-00982	BESEQ	3	UCSTATUS	Ulcerative Colitis Status	INACTIVE ULCERATIVE COLITIS	PUBLIC SOURCE	
E-MTAB-184	BE	IBD-00982	BESEQ	3	BESPEC	Specimen Type	COLON	PUBLIC SOURCE	
E-MTAB-184	BE	IBD-00982	BESEQ	4	UCSTATUS	Ulcerative Colitis Status	ACTIVE ULCERATIVE COLITIS	PUBLIC SOURCE	
E-MTAB-184	BE	IBD-00982	BESEQ	4	BESPEC	Specimen Type	COLON	PUBLIC SOURCE	
E-MTAB-184	BE	IBD-00984	BESEQ	1	BESPEC	Specimen Type	RNA	PUBLIC SOURCE	
E-MTAB-184	BE	IBD-00984	BESEQ	2	BESPEC	Specimen Type	RNA	PUBLIC SOURCE	
E-MTAB-184	BE	IBD-00984	BESEQ	3	UCSTATUS	Ulcerative Colitis Status	INACTIVE ULCERATIVE COLITIS	PUBLIC SOURCE	
E-MTAB-184	BE	IBD-00984	BESEQ	3	BESPEC	Specimen Type	COLON	PUBLIC SOURCE	
E-MTAB-184	BE	IBD-00984	BESEQ	4	UCSTATUS	Ulcerative Colitis Status	ACTIVE ULCERATIVE COLITIS	PUBLIC SOURCE	
E-MTAB-184	BE	IBD-00984	BESEQ	4	BESPEC	Specimen Type	COLON	PUBLIC SOURCE	
E-MTAB-184	BE	IBD-00987	BESEQ	1	BESPEC	Specimen Type	RNA	PUBLIC SOURCE	
E-MTAB-184	BE	IBD-00987	BESEQ	2	BESPEC	Specimen Type	RNA	PUBLIC SOURCE	
E-MTAB-184	BE	IBD-00987	BESEQ	3	UCSTATUS	Ulcerative Colitis Status	INACTIVE ULCERATIVE COLITIS	PUBLIC SOURCE	
E-MTAB-184	BE	IBD-00987	BESEQ	3	BESPEC	Specimen Type	COLON	PUBLIC SOURCE	
E-MTAB-184	BE	IBD-00987	BESEQ	4	UCSTATUS	Ulcerative Colitis Status	ACTIVE ULCERATIVE COLITIS	PUBLIC SOURCE	
E-MTAB-184	BE	IBD-00987	BESEQ	4	BESPEC	Specimen Type	COLON	PUBLIC SOURCE	
E-MTAB-184	BE	IBD-00990	BESEQ	1	BESPEC	Specimen Type	RNA	PUBLIC SOURCE	
E-MTAB-184	BE	IBD-00990	BESEQ	2	BESPEC	Specimen Type	RNA	PUBLIC SOURCE	
E-MTAB-184	BE	IBD-00990	BESEQ	3	UCSTATUS	Ulcerative Colitis Status	INACTIVE ULCERATIVE COLITIS	PUBLIC SOURCE	
E-MTAB-184	BE	IBD-00990	BESEQ	3	BESPEC	Specimen Type	COLON	PUBLIC SOURCE	
E-MTAB-184	BE	IBD-00990	BESEQ	4	UCSTATUS	Ulcerative Colitis Status	ACTIVE ULCERATIVE COLITIS	PUBLIC SOURCE	
E-MTAB-184	BE	IBD-00990	BESEQ	4	BESPEC	Specimen Type	COLON	PUBLIC SOURCE	
E-MTAB-184	BE	IBD-00991	BESEQ	1	BESPEC	Specimen Type	RNA	PUBLIC SOURCE	
E-MTAB-184	BE	IBD-00991	BESEQ	2	BESPEC	Specimen Type	RNA	PUBLIC SOURCE	
E-MTAB-184	BE	IBD-00991	BESEQ	3	UCSTATUS	Ulcerative Colitis Status	INACTIVE ULCERATIVE COLITIS	PUBLIC SOURCE	
E-MTAB-184	BE	IBD-00991	BESEQ	3	BESPEC	Specimen Type	COLON	PUBLIC SOURCE	
E-MTAB-184	BE	IBD-00991	BESEQ	4	UCSTATUS	Ulcerative Colitis Status	ACTIVE ULCERATIVE COLITIS	PUBLIC SOURCE	
E-MTAB-184	BE	IBD-00991	BESEQ	4	BESPEC	Specimen Type	COLON	PUBLIC SOURCE	
E-MTAB-184	BE	IBD-00992	BESEQ	1	BESPEC	Specimen Type	RNA	PUBLIC SOURCE	
E-MTAB-184	BE	IBD-00992	BESEQ	2	BESPEC	Specimen Type	RNA	PUBLIC SOURCE	
E-MTAB-184	BE	IBD-00992	BESEQ	3	UCSTATUS	Ulcerative Colitis Status	INACTIVE ULCERATIVE COLITIS	PUBLIC SOURCE	
E-MTAB-184	BE	IBD-00992	BESEQ	3	BESPEC	Specimen Type	COLON	PUBLIC SOURCE	
E-MTAB-184	BE	IBD-00992	BESEQ	4	UCSTATUS	Ulcerative Colitis Status	ACTIVE ULCERATIVE COLITIS	PUBLIC SOURCE	
E-MTAB-184	BE	IBD-00992	BESEQ	4	BESPEC	Specimen Type	COLON	PUBLIC SOURCE	
E-MTAB-331	BE	IBD-01028	BESEQ	4	BESPEC	Specimen Type	CD4+ T CELLS	PUBLIC SOURCE	
E-MTAB-331	BE	IBD-01028	BESEQ	5	BESPEC	Specimen Type	CD8+ T CELLS	PUBLIC SOURCE	
E-MTAB-331	BE	IBD-01028	BESEQ	6	BESPEC	Specimen Type	PERIPHERAL BLOOD MONONUCLEAR CELL	PUBLIC SOURCE	
E-MTAB-331	BE	IBD-01028	BESEQ	7	BESPEC	Specimen Type	PERIPHERAL BLOOD	PUBLIC SOURCE	
E-MTAB-331	BE	IBD-01030	BESEQ	4	BESPEC	Specimen Type	CD4+ T CELLS	PUBLIC SOURCE	
E-MTAB-331	BE	IBD-01030	BESEQ	5	BESPEC	Specimen Type	CD8+ T CELLS	PUBLIC SOURCE	
E-MTAB-331	BE	IBD-01030	BESEQ	6	BESPEC	Specimen Type	PERIPHERAL BLOOD MONONUCLEAR CELL	PUBLIC SOURCE	
E-MTAB-331	BE	IBD-01030	BESEQ	7	BESPEC	Specimen Type	PERIPHERAL BLOOD	PUBLIC SOURCE	
E-MTAB-331	BE	IBD-01031	BESEQ	4	BESPEC	Specimen Type	CD4+ T CELLS	PUBLIC SOURCE	
E-MTAB-331	BE	IBD-01031	BESEQ	5	BESPEC	Specimen Type	CD8+ T CELLS	PUBLIC SOURCE	
E-MTAB-331	BE	IBD-01031	BESEQ	6	BESPEC	Specimen Type	PERIPHERAL BLOOD MONONUCLEAR CELL	PUBLIC SOURCE	
E-MTAB-331	BE	IBD-01031	BESEQ	7	BESPEC	Specimen Type	PERIPHERAL BLOOD	PUBLIC SOURCE	
E-MTAB-331	BE	IBD-01033	BESEQ	4	BESPEC	Specimen Type	CD4+ T CELLS	PUBLIC SOURCE	
E-MTAB-331	BE	IBD-01033	BESEQ	5	BESPEC	Specimen Type	CD8+ T CELLS	PUBLIC SOURCE	
E-MTAB-331	BE	IBD-01033	BESEQ	6	BESPEC	Specimen Type	PERIPHERAL BLOOD MONONUCLEAR CELL	PUBLIC SOURCE	
E-MTAB-331	BE	IBD-01033	BESEQ	7	BESPEC	Specimen Type	PERIPHERAL BLOOD	PUBLIC SOURCE	
E-MTAB-331	BE	IBD-01034	BESEQ	4	BESPEC	Specimen Type	CD4+ T CELLS	PUBLIC SOURCE	
E-MTAB-331	BE	IBD-01034	BESEQ	5	BESPEC	Specimen Type	CD8+ T CELLS	PUBLIC SOURCE	
E-MTAB-331	BE	IBD-01034	BESEQ	6	BESPEC	Specimen Type	PERIPHERAL BLOOD MONONUCLEAR CELL	PUBLIC SOURCE	
E-MTAB-331	BE	IBD-01034	BESEQ	7	BESPEC	Specimen Type	PERIPHERAL BLOOD	PUBLIC SOURCE	
E-MTAB-331	BE	IBD-01036	BESEQ	4	BESPEC	Specimen Type	CD4+ T CELLS	PUBLIC SOURCE	
E-MTAB-331	BE	IBD-01036	BESEQ	5	BESPEC	Specimen Type	CD8+ T CELLS	PUBLIC SOURCE	
E-MTAB-331	BE	IBD-01036	BESEQ	6	BESPEC	Specimen Type	PERIPHERAL BLOOD MONONUCLEAR CELL	PUBLIC SOURCE	
E-MTAB-331	BE	IBD-01036	BESEQ	7	BESPEC	Specimen Type	PERIPHERAL BLOOD	PUBLIC SOURCE	
E-MTAB-331	BE	IBD-01037	BESEQ	4	BESPEC	Specimen Type	CD4+ T CELLS	PUBLIC SOURCE	
E-MTAB-331	BE	IBD-01037	BESEQ	5	BESPEC	Specimen Type	CD8+ T CELLS	PUBLIC SOURCE	
E-MTAB-331	BE	IBD-01037	BESEQ	6	BESPEC	Specimen Type	PERIPHERAL BLOOD MONONUCLEAR CELL	PUBLIC SOURCE	
E-MTAB-331	BE	IBD-01037	BESEQ	7	BESPEC	Specimen Type	PERIPHERAL BLOOD	PUBLIC SOURCE	
E-MTAB-331	BE	IBD-01039	BESEQ	4	BESPEC	Specimen Type	CD4+ T CELLS	PUBLIC SOURCE	
E-MTAB-331	BE	IBD-01039	BESEQ	5	BESPEC	Specimen Type	CD8+ T CELLS	PUBLIC SOURCE	
E-MTAB-331	BE	IBD-01039	BESEQ	6	BESPEC	Specimen Type	PERIPHERAL BLOOD MONONUCLEAR CELL	PUBLIC SOURCE	
E-MTAB-331	BE	IBD-01039	BESEQ	7	BESPEC	Specimen Type	PERIPHERAL BLOOD	PUBLIC SOURCE	
E-MTAB-331	BE	IBD-01040	BESEQ	4	BESPEC	Specimen Type	CD4+ T CELLS	PUBLIC SOURCE	
E-MTAB-331	BE	IBD-01040	BESEQ	5	BESPEC	Specimen Type	PERIPHERAL BLOOD MONONUCLEAR CELL	PUBLIC SOURCE	
E-MTAB-331	BE	IBD-01040	BESEQ	6	BESPEC	Specimen Type	CD8+ T CELLS	PUBLIC SOURCE	
E-MTAB-331	BE	IBD-01040	BESEQ	7	BESPEC	Specimen Type	PERIPHERAL BLOOD	PUBLIC SOURCE	
E-MTAB-331	BE	IBD-01042	BESEQ	4	BESPEC	Specimen Type	CD4+ T CELLS	PUBLIC SOURCE	
E-MTAB-331	BE	IBD-01042	BESEQ	5	BESPEC	Specimen Type	CD8+ T CELLS	PUBLIC SOURCE	
E-MTAB-331	BE	IBD-01042	BESEQ	6	BESPEC	Specimen Type	PERIPHERAL BLOOD MONONUCLEAR CELL	PUBLIC SOURCE	
E-MTAB-331	BE	IBD-01042	BESEQ	7	BESPEC	Specimen Type	PERIPHERAL BLOOD	PUBLIC SOURCE	
E-MTAB-331	BE	IBD-01043	BESEQ	3	BESPEC	Specimen Type	CD4+ T CELLS	PUBLIC SOURCE	
E-MTAB-331	BE	IBD-01043	BESEQ	4	BESPEC	Specimen Type	CD8+ T CELLS	PUBLIC SOURCE	
E-MTAB-331	BE	IBD-01043	BESEQ	5	BESPEC	Specimen Type	PERIPHERAL BLOOD	PUBLIC SOURCE	
E-MTAB-331	BE	IBD-01045	BESEQ	4	BESPEC	Specimen Type	CD4+ T CELLS	PUBLIC SOURCE	
E-MTAB-331	BE	IBD-01045	BESEQ	5	BESPEC	Specimen Type	CD8+ T CELLS	PUBLIC SOURCE	
E-MTAB-331	BE	IBD-01045	BESEQ	6	BESPEC	Specimen Type	PERIPHERAL BLOOD MONONUCLEAR CELL	PUBLIC SOURCE	
E-MTAB-331	BE	IBD-01045	BESEQ	7	BESPEC	Specimen Type	PERIPHERAL BLOOD	PUBLIC SOURCE	
E-MTAB-331	BE	IBD-01047	BESEQ	4	BESPEC	Specimen Type	CD4+ T CELLS	PUBLIC SOURCE	
E-MTAB-331	BE	IBD-01047	BESEQ	5	BESPEC	Specimen Type	CD8+ T CELLS	PUBLIC SOURCE	
E-MTAB-331	BE	IBD-01047	BESEQ	6	BESPEC	Specimen Type	PERIPHERAL BLOOD MONONUCLEAR CELL	PUBLIC SOURCE	
E-MTAB-331	BE	IBD-01047	BESEQ	7	BESPEC	Specimen Type	PERIPHERAL BLOOD	PUBLIC SOURCE	
E-MTAB-331	BE	IBD-01048	BESEQ	4	BESPEC	Specimen Type	CD4+ T CELLS	PUBLIC SOURCE	
E-MTAB-331	BE	IBD-01048	BESEQ	5	BESPEC	Specimen Type	CD8+ T CELLS	PUBLIC SOURCE	
E-MTAB-331	BE	IBD-01048	BESEQ	6	BESPEC	Specimen Type	PERIPHERAL BLOOD MONONUCLEAR CELL	PUBLIC SOURCE	
E-MTAB-331	BE	IBD-01048	BESEQ	7	BESPEC	Specimen Type	PERIPHERAL BLOOD	PUBLIC SOURCE	
E-MTAB-331	BE	IBD-01050	BESEQ	4	BESPEC	Specimen Type	CD4+ T CELLS	PUBLIC SOURCE	
E-MTAB-331	BE	IBD-01050	BESEQ	5	BESPEC	Specimen Type	CD8+ T CELLS	PUBLIC SOURCE	
E-MTAB-331	BE	IBD-01050	BESEQ	6	BESPEC	Specimen Type	PERIPHERAL BLOOD MONONUCLEAR CELL	PUBLIC SOURCE	
E-MTAB-331	BE	IBD-01050	BESEQ	7	BESPEC	Specimen Type	PERIPHERAL BLOOD	PUBLIC SOURCE	
E-MTAB-331	BE	IBD-01051	BESEQ	4	BESPEC	Specimen Type	CD4+ T CELLS	PUBLIC SOURCE	
E-MTAB-331	BE	IBD-01051	BESEQ	5	BESPEC	Specimen Type	CD8+ T CELLS	PUBLIC SOURCE	
E-MTAB-331	BE	IBD-01051	BESEQ	6	BESPEC	Specimen Type	PERIPHERAL BLOOD MONONUCLEAR CELL	PUBLIC SOURCE	
E-MTAB-331	BE	IBD-01051	BESEQ	7	BESPEC	Specimen Type	PERIPHERAL BLOOD	PUBLIC SOURCE	
E-MTAB-331	BE	IBD-01053	BESEQ	4	BESPEC	Specimen Type	CD4+ T CELLS	PUBLIC SOURCE	
E-MTAB-331	BE	IBD-01053	BESEQ	5	BESPEC	Specimen Type	CD8+ T CELLS	PUBLIC SOURCE	
E-MTAB-331	BE	IBD-01053	BESEQ	6	BESPEC	Specimen Type	PERIPHERAL BLOOD MONONUCLEAR CELL	PUBLIC SOURCE	
E-MTAB-331	BE	IBD-01053	BESEQ	7	BESPEC	Specimen Type	PERIPHERAL BLOOD	PUBLIC SOURCE	
E-MTAB-331	BE	IBD-01054	BESEQ	4	BESPEC	Specimen Type	CD4+ T CELLS	PUBLIC SOURCE	
E-MTAB-331	BE	IBD-01054	BESEQ	5	BESPEC	Specimen Type	CD8+ T CELLS	PUBLIC SOURCE	
E-MTAB-331	BE	IBD-01054	BESEQ	6	BESPEC	Specimen Type	PERIPHERAL BLOOD MONONUCLEAR CELL	PUBLIC SOURCE	
E-MTAB-331	BE	IBD-01054	BESEQ	7	BESPEC	Specimen Type	PERIPHERAL BLOOD	PUBLIC SOURCE	
E-MTAB-331	BE	IBD-01056	BESEQ	4	BESPEC	Specimen Type	CD4+ T CELLS	PUBLIC SOURCE	
E-MTAB-331	BE	IBD-01056	BESEQ	5	BESPEC	Specimen Type	CD8+ T CELLS	PUBLIC SOURCE	
E-MTAB-331	BE	IBD-01056	BESEQ	6	BESPEC	Specimen Type	PERIPHERAL BLOOD MONONUCLEAR CELL	PUBLIC SOURCE	
E-MTAB-331	BE	IBD-01056	BESEQ	7	BESPEC	Specimen Type	PERIPHERAL BLOOD	PUBLIC SOURCE	
E-MTAB-331	BE	IBD-01057	BESEQ	4	BESPEC	Specimen Type	CD4+ T CELLS	PUBLIC SOURCE	
E-MTAB-331	BE	IBD-01057	BESEQ	5	BESPEC	Specimen Type	CD8+ T CELLS	PUBLIC SOURCE	
E-MTAB-331	BE	IBD-01057	BESEQ	6	BESPEC	Specimen Type	PERIPHERAL BLOOD MONONUCLEAR CELL	PUBLIC SOURCE	
E-MTAB-331	BE	IBD-01057	BESEQ	7	BESPEC	Specimen Type	PERIPHERAL BLOOD	PUBLIC SOURCE	
E-MTAB-331	BE	IBD-01059	BESEQ	4	BESPEC	Specimen Type	CD4+ T CELLS	PUBLIC SOURCE	
E-MTAB-331	BE	IBD-01059	BESEQ	5	BESPEC	Specimen Type	CD8+ T CELLS	PUBLIC SOURCE	
E-MTAB-331	BE	IBD-01059	BESEQ	6	BESPEC	Specimen Type	PERIPHERAL BLOOD MONONUCLEAR CELL	PUBLIC SOURCE	
E-MTAB-331	BE	IBD-01059	BESEQ	7	BESPEC	Specimen Type	PERIPHERAL BLOOD	PUBLIC SOURCE	
E-MTAB-331	BE	IBD-01060	BESEQ	4	BESPEC	Specimen Type	CD4+ T CELLS	PUBLIC SOURCE	
E-MTAB-331	BE	IBD-01060	BESEQ	5	BESPEC	Specimen Type	CD8+ T CELLS	PUBLIC SOURCE	
E-MTAB-331	BE	IBD-01060	BESEQ	6	BESPEC	Specimen Type	PERIPHERAL BLOOD MONONUCLEAR CELL	PUBLIC SOURCE	
E-MTAB-331	BE	IBD-01060	BESEQ	7	BESPEC	Specimen Type	PERIPHERAL BLOOD	PUBLIC SOURCE	
E-MTAB-331	BE	IBD-01062	BESEQ	4	BESPEC	Specimen Type	CD4+ T CELLS	PUBLIC SOURCE	
E-MTAB-331	BE	IBD-01062	BESEQ	5	BESPEC	Specimen Type	CD8+ T CELLS	PUBLIC SOURCE	
E-MTAB-331	BE	IBD-01062	BESEQ	6	BESPEC	Specimen Type	PERIPHERAL BLOOD MONONUCLEAR CELL	PUBLIC SOURCE	
E-MTAB-331	BE	IBD-01062	BESEQ	7	BESPEC	Specimen Type	PERIPHERAL BLOOD	PUBLIC SOURCE	
E-MTAB-331	BE	IBD-01063	BESEQ	4	BESPEC	Specimen Type	CD4+ T CELLS	PUBLIC SOURCE	
E-MTAB-331	BE	IBD-01063	BESEQ	5	BESPEC	Specimen Type	CD8+ T CELLS	PUBLIC SOURCE	
E-MTAB-331	BE	IBD-01063	BESEQ	6	BESPEC	Specimen Type	PERIPHERAL BLOOD MONONUCLEAR CELL	PUBLIC SOURCE	
E-MTAB-331	BE	IBD-01063	BESEQ	7	BESPEC	Specimen Type	PERIPHERAL BLOOD	PUBLIC SOURCE	
E-MTAB-331	BE	IBD-01065	BESEQ	4	BESPEC	Specimen Type	CD4+ T CELLS	PUBLIC SOURCE	
E-MTAB-331	BE	IBD-01065	BESEQ	5	BESPEC	Specimen Type	CD8+ T CELLS	PUBLIC SOURCE	
E-MTAB-331	BE	IBD-01065	BESEQ	6	BESPEC	Specimen Type	PERIPHERAL BLOOD MONONUCLEAR CELL	PUBLIC SOURCE	
E-MTAB-331	BE	IBD-01065	BESEQ	7	BESPEC	Specimen Type	PERIPHERAL BLOOD	PUBLIC SOURCE	
E-MTAB-331	BE	IBD-01066	BESEQ	4	BESPEC	Specimen Type	CD4+ T CELLS	PUBLIC SOURCE	
E-MTAB-331	BE	IBD-01066	BESEQ	5	BESPEC	Specimen Type	CD8+ T CELLS	PUBLIC SOURCE	
E-MTAB-331	BE	IBD-01066	BESEQ	6	BESPEC	Specimen Type	PERIPHERAL BLOOD MONONUCLEAR CELL	PUBLIC SOURCE	
E-MTAB-331	BE	IBD-01066	BESEQ	7	BESPEC	Specimen Type	PERIPHERAL BLOOD	PUBLIC SOURCE	
E-MTAB-331	BE	IBD-01067	BESEQ	4	BESPEC	Specimen Type	CD4+ T CELLS	PUBLIC SOURCE	
E-MTAB-331	BE	IBD-01067	BESEQ	5	BESPEC	Specimen Type	CD8+ T CELLS	PUBLIC SOURCE	
E-MTAB-331	BE	IBD-01067	BESEQ	6	BESPEC	Specimen Type	PERIPHERAL BLOOD MONONUCLEAR CELL	PUBLIC SOURCE	
E-MTAB-331	BE	IBD-01067	BESEQ	7	BESPEC	Specimen Type	PERIPHERAL BLOOD	PUBLIC SOURCE	
E-MTAB-331	BE	IBD-01068	BESEQ	4	BESPEC	Specimen Type	CD4+ T CELLS	PUBLIC SOURCE	
E-MTAB-331	BE	IBD-01068	BESEQ	5	BESPEC	Specimen Type	CD8+ T CELLS	PUBLIC SOURCE	
E-MTAB-331	BE	IBD-01068	BESEQ	6	BESPEC	Specimen Type	PERIPHERAL BLOOD MONONUCLEAR CELL	PUBLIC SOURCE	
E-MTAB-331	BE	IBD-01068	BESEQ	7	BESPEC	Specimen Type	PERIPHERAL BLOOD	PUBLIC SOURCE	
E-MTAB-331	BE	IBD-01069	BESEQ	3	BESPEC	Specimen Type	CD4+ T CELLS	PUBLIC SOURCE	
E-MTAB-331	BE	IBD-01069	BESEQ	4	BESPEC	Specimen Type	CD8+ T CELLS	PUBLIC SOURCE	
E-MTAB-331	BE	IBD-01069	BESEQ	5	BESPEC	Specimen Type	PERIPHERAL BLOOD	PUBLIC SOURCE	
E-MTAB-331	BE	IBD-01070	BESEQ	4	BESPEC	Specimen Type	CD4+ T CELLS	PUBLIC SOURCE	
E-MTAB-331	BE	IBD-01070	BESEQ	5	BESPEC	Specimen Type	CD8+ T CELLS	PUBLIC SOURCE	
E-MTAB-331	BE	IBD-01070	BESEQ	6	BESPEC	Specimen Type	PERIPHERAL BLOOD MONONUCLEAR CELL	PUBLIC SOURCE	
E-MTAB-331	BE	IBD-01070	BESEQ	7	BESPEC	Specimen Type	PERIPHERAL BLOOD	PUBLIC SOURCE	
E-MTAB-331	BE	IBD-01075	BESEQ	3	BESPEC	Specimen Type	CD8+ T CELLS	PUBLIC SOURCE	
E-MTAB-331	BE	IBD-01075	BESEQ	4	BESPEC	Specimen Type	PERIPHERAL BLOOD MONONUCLEAR CELL	PUBLIC SOURCE	
E-MTAB-331	BE	IBD-01075	BESEQ	5	BESPEC	Specimen Type	PERIPHERAL BLOOD	PUBLIC SOURCE	
GSE32148	BE	IBD-01225	BESEQ	1	BESPEC	Specimen Type	RNA	PUBLIC SOURCE	
GSE32148	BE	IBD-01225	BESEQ	2	BESPEC	Specimen Type	PERIPHERAL BLOOD LEUKOCYTES	PUBLIC SOURCE	
GSE32148	BE	IBD-01225	BESEQ	3	BESPEC	Specimen Type	PERIPHERAL BLOOD	PUBLIC SOURCE	
GSE32148	BE	IBD-01226	BESEQ	1	BESPEC	Specimen Type	RNA	PUBLIC SOURCE	
GSE32148	BE	IBD-01226	BESEQ	2	BESPEC	Specimen Type	PERIPHERAL BLOOD LEUKOCYTES	PUBLIC SOURCE	
GSE32148	BE	IBD-01226	BESEQ	3	BESPEC	Specimen Type	PERIPHERAL BLOOD	PUBLIC SOURCE	
GSE32148	BE	IBD-01227	BESEQ	1	BESPEC	Specimen Type	RNA	PUBLIC SOURCE	
GSE32148	BE	IBD-01227	BESEQ	2	BESPEC	Specimen Type	PERIPHERAL BLOOD LEUKOCYTES	PUBLIC SOURCE	
GSE32148	BE	IBD-01227	BESEQ	3	BESPEC	Specimen Type	PERIPHERAL BLOOD	PUBLIC SOURCE	
GSE32148	BE	IBD-01228	BESEQ	1	BESPEC	Specimen Type	RNA	PUBLIC SOURCE	
GSE32148	BE	IBD-01228	BESEQ	2	BESPEC	Specimen Type	PERIPHERAL BLOOD LEUKOCYTES	PUBLIC SOURCE	
GSE32148	BE	IBD-01228	BESEQ	3	BESPEC	Specimen Type	PERIPHERAL BLOOD	PUBLIC SOURCE	
GSE32148	BE	IBD-01229	BESEQ	1	BESPEC	Specimen Type	RNA	PUBLIC SOURCE	
GSE32148	BE	IBD-01229	BESEQ	2	BESPEC	Specimen Type	PERIPHERAL BLOOD LEUKOCYTES	PUBLIC SOURCE	
GSE32148	BE	IBD-01229	BESEQ	3	BESPEC	Specimen Type	PERIPHERAL BLOOD	PUBLIC SOURCE	
GSE32148	BE	IBD-01230	BESEQ	1	BESPEC	Specimen Type	RNA	PUBLIC SOURCE	
GSE32148	BE	IBD-01230	BESEQ	2	BESPEC	Specimen Type	PERIPHERAL BLOOD LEUKOCYTES	PUBLIC SOURCE	
GSE32148	BE	IBD-01230	BESEQ	3	BESPEC	Specimen Type	PERIPHERAL BLOOD	PUBLIC SOURCE	
GSE32148	BE	IBD-01231	BESEQ	1	BESPEC	Specimen Type	RNA	PUBLIC SOURCE	
GSE32148	BE	IBD-01231	BESEQ	2	BESPEC	Specimen Type	PERIPHERAL BLOOD LEUKOCYTES	PUBLIC SOURCE	
GSE32148	BE	IBD-01231	BESEQ	3	BESPEC	Specimen Type	PERIPHERAL BLOOD	PUBLIC SOURCE	
GSE32148	BE	IBD-01232	BESEQ	1	BESPEC	Specimen Type	RNA	PUBLIC SOURCE	
GSE32148	BE	IBD-01232	BESEQ	2	BESPEC	Specimen Type	PERIPHERAL BLOOD LEUKOCYTES	PUBLIC SOURCE	
GSE32148	BE	IBD-01232	BESEQ	3	BESPEC	Specimen Type	PERIPHERAL BLOOD	PUBLIC SOURCE	
GSE32148	BE	IBD-01233	BESEQ	1	BESPEC	Specimen Type	RNA	PUBLIC SOURCE	
GSE32148	BE	IBD-01233	BESEQ	2	BESPEC	Specimen Type	PERIPHERAL BLOOD LEUKOCYTES	PUBLIC SOURCE	
GSE32148	BE	IBD-01233	BESEQ	3	BESPEC	Specimen Type	PERIPHERAL BLOOD	PUBLIC SOURCE	
GSE32148	BE	IBD-01234	BESEQ	1	BESPEC	Specimen Type	RNA	PUBLIC SOURCE	
GSE32148	BE	IBD-01234	BESEQ	2	BESPEC	Specimen Type	PERIPHERAL BLOOD LEUKOCYTES	PUBLIC SOURCE	
GSE32148	BE	IBD-01234	BESEQ	3	BESPEC	Specimen Type	PERIPHERAL BLOOD	PUBLIC SOURCE	
GSE32148	BE	IBD-01235	BESEQ	1	BESPEC	Specimen Type	RNA	PUBLIC SOURCE	
GSE32148	BE	IBD-01235	BESEQ	2	BESPEC	Specimen Type	PERIPHERAL BLOOD LEUKOCYTES	PUBLIC SOURCE	
GSE32148	BE	IBD-01235	BESEQ	3	BESPEC	Specimen Type	PERIPHERAL BLOOD	PUBLIC SOURCE		