STUDYID	RDOMAIN	USUBJID	IDVAR	IDVARVAL	QNAM	QLABEL	QVAL	QORIG	QEVAL
GSE23597	RS	IBD-00124	RSSEQ	1	RSMETH1	Method of Test or Examination 1	DECREASE IN THE TOTAL MAYO SCORE OF AT LEAST THREE POINTS AND AT LEAST 30%	PUBLIC SOURCE	
GSE23597	RS	IBD-00124	RSSEQ	1	RSMETH2	Method of Test or Examination 2	DECREASE IN THE MAYO SCORE'S SUBSCORE FOR RECTAL BLEEDING OF AT LEAST ONE POINT OR AN ABSOLUTE SUBSCORE FOR RECTAL BLEEDING OF 0 OR 1	PUBLIC SOURCE	
GSE23597	RS	IBD-00124	RSSEQ	2	RSMETH1	Method of Test or Examination 1	DECREASE IN THE TOTAL MAYO SCORE OF AT LEAST THREE POINTS AND AT LEAST 30%	PUBLIC SOURCE	
GSE23597	RS	IBD-00124	RSSEQ	2	RSMETH2	Method of Test or Examination 2	DECREASE IN THE MAYO SCORE'S SUBSCORE FOR RECTAL BLEEDING OF AT LEAST ONE POINT OR AN ABSOLUTE SUBSCORE FOR RECTAL BLEEDING OF 0 OR 1	PUBLIC SOURCE	
GSE23597	RS	IBD-00125	RSSEQ	1	RSMETH1	Method of Test or Examination 1	DECREASE IN THE TOTAL MAYO SCORE OF AT LEAST THREE POINTS AND AT LEAST 30%	PUBLIC SOURCE	
GSE23597	RS	IBD-00125	RSSEQ	1	RSMETH2	Method of Test or Examination 2	DECREASE IN THE MAYO SCORE'S SUBSCORE FOR RECTAL BLEEDING OF AT LEAST ONE POINT OR AN ABSOLUTE SUBSCORE FOR RECTAL BLEEDING OF 0 OR 1	PUBLIC SOURCE	
GSE23597	RS	IBD-00125	RSSEQ	2	RSMETH1	Method of Test or Examination 1	DECREASE IN THE TOTAL MAYO SCORE OF AT LEAST THREE POINTS AND AT LEAST 30%	PUBLIC SOURCE	
GSE23597	RS	IBD-00125	RSSEQ	2	RSMETH2	Method of Test or Examination 2	DECREASE IN THE MAYO SCORE'S SUBSCORE FOR RECTAL BLEEDING OF AT LEAST ONE POINT OR AN ABSOLUTE SUBSCORE FOR RECTAL BLEEDING OF 0 OR 1	PUBLIC SOURCE	
GSE23597	RS	IBD-00126	RSSEQ	1	RSMETH1	Method of Test or Examination 1	DECREASE IN THE TOTAL MAYO SCORE OF AT LEAST THREE POINTS AND AT LEAST 30%	PUBLIC SOURCE	
GSE23597	RS	IBD-00126	RSSEQ	1	RSMETH2	Method of Test or Examination 2	DECREASE IN THE MAYO SCORE'S SUBSCORE FOR RECTAL BLEEDING OF AT LEAST ONE POINT OR AN ABSOLUTE SUBSCORE FOR RECTAL BLEEDING OF 0 OR 1	PUBLIC SOURCE	
GSE23597	RS	IBD-00126	RSSEQ	2	RSMETH1	Method of Test or Examination 1	DECREASE IN THE TOTAL MAYO SCORE OF AT LEAST THREE POINTS AND AT LEAST 30%	PUBLIC SOURCE	
GSE23597	RS	IBD-00126	RSSEQ	2	RSMETH2	Method of Test or Examination 2	DECREASE IN THE MAYO SCORE'S SUBSCORE FOR RECTAL BLEEDING OF AT LEAST ONE POINT OR AN ABSOLUTE SUBSCORE FOR RECTAL BLEEDING OF 0 OR 1	PUBLIC SOURCE	
GSE23597	RS	IBD-00127	RSSEQ	1	RSMETH1	Method of Test or Examination 1	DECREASE IN THE TOTAL MAYO SCORE OF AT LEAST THREE POINTS AND AT LEAST 30%	PUBLIC SOURCE	
GSE23597	RS	IBD-00127	RSSEQ	1	RSMETH2	Method of Test or Examination 2	DECREASE IN THE MAYO SCORE'S SUBSCORE FOR RECTAL BLEEDING OF AT LEAST ONE POINT OR AN ABSOLUTE SUBSCORE FOR RECTAL BLEEDING OF 0 OR 1	PUBLIC SOURCE	
GSE23597	RS	IBD-00127	RSSEQ	2	RSMETH1	Method of Test or Examination 1	DECREASE IN THE TOTAL MAYO SCORE OF AT LEAST THREE POINTS AND AT LEAST 30%	PUBLIC SOURCE	
GSE23597	RS	IBD-00127	RSSEQ	2	RSMETH2	Method of Test or Examination 2	DECREASE IN THE MAYO SCORE'S SUBSCORE FOR RECTAL BLEEDING OF AT LEAST ONE POINT OR AN ABSOLUTE SUBSCORE FOR RECTAL BLEEDING OF 0 OR 1	PUBLIC SOURCE	
GSE21231	RS	IBD-00554	RSSEQ	1	RSMETH1	Method of Test or Examination 1	NO REQUIREMENT FOR SECOND LINE MEDICAL INTERVENTION OR SURGERY BY DISCHARGE	PUBLIC SOURCE	
GSE21231	RS	IBD-00554	RSSEQ	1	RSMETH2	Method of Test or Examination 2	PUCAI SCORE LESS THAN OR EQUAL TO 45 POINTS BY DAY 5 OF THERAPY	PUBLIC SOURCE	
GSE21231	RS	IBD-00555	RSSEQ	1	RSMETH1	Method of Test or Examination 1	NO REQUIREMENT FOR SECOND LINE MEDICAL INTERVENTION OR SURGERY BY DISCHARGE	PUBLIC SOURCE	
GSE21231	RS	IBD-00555	RSSEQ	1	RSMETH2	Method of Test or Examination 2	PUCAI SCORE LESS THAN OR EQUAL TO 45 POINTS BY DAY 5 OF THERAPY	PUBLIC SOURCE	
GSE21231	RS	IBD-00556	RSSEQ	1	RSMETH1	Method of Test or Examination 1	NO REQUIREMENT FOR SECOND LINE MEDICAL INTERVENTION OR SURGERY BY DISCHARGE	PUBLIC SOURCE	
GSE21231	RS	IBD-00556	RSSEQ	1	RSMETH2	Method of Test or Examination 2	PUCAI SCORE LESS THAN OR EQUAL TO 45 POINTS BY DAY 5 OF THERAPY	PUBLIC SOURCE	
GSE21231	RS	IBD-00557	RSSEQ	1	RSMETH1	Method of Test or Examination 1	NO REQUIREMENT FOR SECOND LINE MEDICAL INTERVENTION OR SURGERY BY DISCHARGE	PUBLIC SOURCE	
GSE21231	RS	IBD-00557	RSSEQ	1	RSMETH2	Method of Test or Examination 2	PUCAI SCORE LESS THAN OR EQUAL TO 45 POINTS BY DAY 5 OF THERAPY	PUBLIC SOURCE	
GSE21231	RS	IBD-00558	RSSEQ	1	RSMETH1	Method of Test or Examination 1	NO REQUIREMENT FOR SECOND LINE MEDICAL INTERVENTION OR SURGERY BY DISCHARGE	PUBLIC SOURCE	
GSE21231	RS	IBD-00558	RSSEQ	1	RSMETH2	Method of Test or Examination 2	PUCAI SCORE LESS THAN OR EQUAL TO 45 POINTS BY DAY 5 OF THERAPY	PUBLIC SOURCE	
GSE21231	RS	IBD-00559	RSSEQ	1	RSMETH1	Method of Test or Examination 1	NO REQUIREMENT FOR SECOND LINE MEDICAL INTERVENTION OR SURGERY BY DISCHARGE	PUBLIC SOURCE	
GSE21231	RS	IBD-00559	RSSEQ	1	RSMETH2	Method of Test or Examination 2	PUCAI SCORE LESS THAN OR EQUAL TO 45 POINTS BY DAY 5 OF THERAPY	PUBLIC SOURCE	
GSE21231	RS	IBD-00560	RSSEQ	1	RSMETH1	Method of Test or Examination 1	NO REQUIREMENT FOR SECOND LINE MEDICAL INTERVENTION OR SURGERY BY DISCHARGE	PUBLIC SOURCE	
GSE21231	RS	IBD-00560	RSSEQ	1	RSMETH2	Method of Test or Examination 2	PUCAI SCORE LESS THAN OR EQUAL TO 45 POINTS BY DAY 5 OF THERAPY	PUBLIC SOURCE	
GSE21231	RS	IBD-00561	RSSEQ	1	RSMETH1	Method of Test or Examination 1	NO REQUIREMENT FOR SECOND LINE MEDICAL INTERVENTION OR SURGERY BY DISCHARGE	PUBLIC SOURCE	
GSE21231	RS	IBD-00561	RSSEQ	1	RSMETH2	Method of Test or Examination 2	PUCAI SCORE LESS THAN OR EQUAL TO 45 POINTS BY DAY 5 OF THERAPY	PUBLIC SOURCE	
GSE21231	RS	IBD-00562	RSSEQ	1	RSMETH1	Method of Test or Examination 1	NO REQUIREMENT FOR SECOND LINE MEDICAL INTERVENTION OR SURGERY BY DISCHARGE	PUBLIC SOURCE	
GSE21231	RS	IBD-00562	RSSEQ	1	RSMETH2	Method of Test or Examination 2	PUCAI SCORE LESS THAN OR EQUAL TO 45 POINTS BY DAY 5 OF THERAPY	PUBLIC SOURCE	
GSE21231	RS	IBD-00563	RSSEQ	1	RSMETH1	Method of Test or Examination 1	NO REQUIREMENT FOR SECOND LINE MEDICAL INTERVENTION OR SURGERY BY DISCHARGE	PUBLIC SOURCE	
GSE21231	RS	IBD-00563	RSSEQ	1	RSMETH2	Method of Test or Examination 2	PUCAI SCORE LESS THAN OR EQUAL TO 45 POINTS BY DAY 5 OF THERAPY	PUBLIC SOURCE	
GSE21231	RS	IBD-00564	RSSEQ	1	RSMETH1	Method of Test or Examination 1	NO REQUIREMENT FOR SECOND LINE MEDICAL INTERVENTION OR SURGERY BY DISCHARGE	PUBLIC SOURCE	
GSE21231	RS	IBD-00564	RSSEQ	1	RSMETH2	Method of Test or Examination 2	PUCAI SCORE LESS THAN OR EQUAL TO 45 POINTS BY DAY 5 OF THERAPY	PUBLIC SOURCE	
GSE21231	RS	IBD-00565	RSSEQ	1	RSMETH1	Method of Test or Examination 1	NO REQUIREMENT FOR SECOND LINE MEDICAL INTERVENTION OR SURGERY BY DISCHARGE	PUBLIC SOURCE	
GSE21231	RS	IBD-00565	RSSEQ	1	RSMETH2	Method of Test or Examination 2	PUCAI SCORE LESS THAN OR EQUAL TO 45 POINTS BY DAY 5 OF THERAPY	PUBLIC SOURCE	
GSE21231	RS	IBD-00566	RSSEQ	1	RSMETH1	Method of Test or Examination 1	NO REQUIREMENT FOR SECOND LINE MEDICAL INTERVENTION OR SURGERY BY DISCHARGE	PUBLIC SOURCE	
GSE21231	RS	IBD-00566	RSSEQ	1	RSMETH2	Method of Test or Examination 2	PUCAI SCORE LESS THAN OR EQUAL TO 45 POINTS BY DAY 5 OF THERAPY	PUBLIC SOURCE	
GSE21231	RS	IBD-00567	RSSEQ	1	RSMETH1	Method of Test or Examination 1	NO REQUIREMENT FOR SECOND LINE MEDICAL INTERVENTION OR SURGERY BY DISCHARGE	PUBLIC SOURCE	
GSE21231	RS	IBD-00567	RSSEQ	1	RSMETH2	Method of Test or Examination 2	PUCAI SCORE LESS THAN OR EQUAL TO 45 POINTS BY DAY 5 OF THERAPY	PUBLIC SOURCE	
GSE21231	RS	IBD-00568	RSSEQ	1	RSMETH1	Method of Test or Examination 1	NO REQUIREMENT FOR SECOND LINE MEDICAL INTERVENTION OR SURGERY BY DISCHARGE	PUBLIC SOURCE	
GSE21231	RS	IBD-00568	RSSEQ	1	RSMETH2	Method of Test or Examination 2	PUCAI SCORE LESS THAN OR EQUAL TO 45 POINTS BY DAY 5 OF THERAPY	PUBLIC SOURCE	
GSE21231	RS	IBD-00569	RSSEQ	1	RSMETH1	Method of Test or Examination 1	NO REQUIREMENT FOR SECOND LINE MEDICAL INTERVENTION OR SURGERY BY DISCHARGE	PUBLIC SOURCE	
GSE21231	RS	IBD-00569	RSSEQ	1	RSMETH2	Method of Test or Examination 2	PUCAI SCORE LESS THAN OR EQUAL TO 45 POINTS BY DAY 5 OF THERAPY	PUBLIC SOURCE	
GSE21231	RS	IBD-00570	RSSEQ	1	RSMETH1	Method of Test or Examination 1	NO REQUIREMENT FOR SECOND LINE MEDICAL INTERVENTION OR SURGERY BY DISCHARGE	PUBLIC SOURCE	
GSE21231	RS	IBD-00570	RSSEQ	1	RSMETH2	Method of Test or Examination 2	PUCAI SCORE LESS THAN OR EQUAL TO 45 POINTS BY DAY 5 OF THERAPY	PUBLIC SOURCE	
GSE21231	RS	IBD-00571	RSSEQ	1	RSMETH1	Method of Test or Examination 1	NO REQUIREMENT FOR SECOND LINE MEDICAL INTERVENTION OR SURGERY BY DISCHARGE	PUBLIC SOURCE	
GSE21231	RS	IBD-00571	RSSEQ	1	RSMETH2	Method of Test or Examination 2	PUCAI SCORE LESS THAN OR EQUAL TO 45 POINTS BY DAY 5 OF THERAPY	PUBLIC SOURCE	
GSE21231	RS	IBD-00572	RSSEQ	1	RSMETH1	Method of Test or Examination 1	NO REQUIREMENT FOR SECOND LINE MEDICAL INTERVENTION OR SURGERY BY DISCHARGE	PUBLIC SOURCE	
GSE21231	RS	IBD-00572	RSSEQ	1	RSMETH2	Method of Test or Examination 2	PUCAI SCORE LESS THAN OR EQUAL TO 45 POINTS BY DAY 5 OF THERAPY	PUBLIC SOURCE	
GSE21231	RS	IBD-00573	RSSEQ	1	RSMETH1	Method of Test or Examination 1	NO REQUIREMENT FOR SECOND LINE MEDICAL INTERVENTION OR SURGERY BY DISCHARGE	PUBLIC SOURCE	
GSE21231	RS	IBD-00573	RSSEQ	1	RSMETH2	Method of Test or Examination 2	PUCAI SCORE LESS THAN OR EQUAL TO 45 POINTS BY DAY 5 OF THERAPY	PUBLIC SOURCE	
GSE21231	RS	IBD-00574	RSSEQ	1	RSMETH1	Method of Test or Examination 1	NO REQUIREMENT FOR SECOND LINE MEDICAL INTERVENTION OR SURGERY BY DISCHARGE	PUBLIC SOURCE	
GSE21231	RS	IBD-00574	RSSEQ	1	RSMETH2	Method of Test or Examination 2	PUCAI SCORE LESS THAN OR EQUAL TO 45 POINTS BY DAY 5 OF THERAPY	PUBLIC SOURCE	
GSE21231	RS	IBD-00575	RSSEQ	1	RSMETH1	Method of Test or Examination 1	NO REQUIREMENT FOR SECOND LINE MEDICAL INTERVENTION OR SURGERY BY DISCHARGE	PUBLIC SOURCE	
GSE21231	RS	IBD-00575	RSSEQ	1	RSMETH2	Method of Test or Examination 2	PUCAI SCORE LESS THAN OR EQUAL TO 45 POINTS BY DAY 5 OF THERAPY	PUBLIC SOURCE	
GSE21231	RS	IBD-00576	RSSEQ	1	RSMETH1	Method of Test or Examination 1	NO REQUIREMENT FOR SECOND LINE MEDICAL INTERVENTION OR SURGERY BY DISCHARGE	PUBLIC SOURCE	
GSE21231	RS	IBD-00576	RSSEQ	1	RSMETH2	Method of Test or Examination 2	PUCAI SCORE LESS THAN OR EQUAL TO 45 POINTS BY DAY 5 OF THERAPY	PUBLIC SOURCE	
GSE21231	RS	IBD-00577	RSSEQ	1	RSMETH1	Method of Test or Examination 1	NO REQUIREMENT FOR SECOND LINE MEDICAL INTERVENTION OR SURGERY BY DISCHARGE	PUBLIC SOURCE	
GSE21231	RS	IBD-00577	RSSEQ	1	RSMETH2	Method of Test or Examination 2	PUCAI SCORE LESS THAN OR EQUAL TO 45 POINTS BY DAY 5 OF THERAPY	PUBLIC SOURCE	
GSE21231	RS	IBD-00578	RSSEQ	1	RSMETH1	Method of Test or Examination 1	NO REQUIREMENT FOR SECOND LINE MEDICAL INTERVENTION OR SURGERY BY DISCHARGE	PUBLIC SOURCE	
GSE21231	RS	IBD-00578	RSSEQ	1	RSMETH2	Method of Test or Examination 2	PUCAI SCORE LESS THAN OR EQUAL TO 45 POINTS BY DAY 5 OF THERAPY	PUBLIC SOURCE	
GSE21231	RS	IBD-00579	RSSEQ	1	RSMETH1	Method of Test or Examination 1	NO REQUIREMENT FOR SECOND LINE MEDICAL INTERVENTION OR SURGERY BY DISCHARGE	PUBLIC SOURCE	
GSE21231	RS	IBD-00579	RSSEQ	1	RSMETH2	Method of Test or Examination 2	PUCAI SCORE LESS THAN OR EQUAL TO 45 POINTS BY DAY 5 OF THERAPY	PUBLIC SOURCE	
GSE21231	RS	IBD-00580	RSSEQ	1	RSMETH1	Method of Test or Examination 1	NO REQUIREMENT FOR SECOND LINE MEDICAL INTERVENTION OR SURGERY BY DISCHARGE	PUBLIC SOURCE	
GSE21231	RS	IBD-00580	RSSEQ	1	RSMETH2	Method of Test or Examination 2	PUCAI SCORE LESS THAN OR EQUAL TO 45 POINTS BY DAY 5 OF THERAPY	PUBLIC SOURCE	
GSE21231	RS	IBD-00581	RSSEQ	1	RSMETH1	Method of Test or Examination 1	NO REQUIREMENT FOR SECOND LINE MEDICAL INTERVENTION OR SURGERY BY DISCHARGE	PUBLIC SOURCE	
GSE21231	RS	IBD-00581	RSSEQ	1	RSMETH2	Method of Test or Examination 2	PUCAI SCORE LESS THAN OR EQUAL TO 45 POINTS BY DAY 5 OF THERAPY	PUBLIC SOURCE	
GSE21231	RS	IBD-00582	RSSEQ	1	RSMETH1	Method of Test or Examination 1	NO REQUIREMENT FOR SECOND LINE MEDICAL INTERVENTION OR SURGERY BY DISCHARGE	PUBLIC SOURCE	
GSE21231	RS	IBD-00582	RSSEQ	1	RSMETH2	Method of Test or Examination 2	PUCAI SCORE LESS THAN OR EQUAL TO 45 POINTS BY DAY 5 OF THERAPY	PUBLIC SOURCE	
GSE21231	RS	IBD-00583	RSSEQ	1	RSMETH1	Method of Test or Examination 1	NO REQUIREMENT FOR SECOND LINE MEDICAL INTERVENTION OR SURGERY BY DISCHARGE	PUBLIC SOURCE	
GSE21231	RS	IBD-00583	RSSEQ	1	RSMETH2	Method of Test or Examination 2	PUCAI SCORE LESS THAN OR EQUAL TO 45 POINTS BY DAY 5 OF THERAPY	PUBLIC SOURCE	
GSE21231	RS	IBD-00584	RSSEQ	1	RSMETH1	Method of Test or Examination 1	NO REQUIREMENT FOR SECOND LINE MEDICAL INTERVENTION OR SURGERY BY DISCHARGE	PUBLIC SOURCE	
GSE21231	RS	IBD-00584	RSSEQ	1	RSMETH2	Method of Test or Examination 2	PUCAI SCORE LESS THAN OR EQUAL TO 45 POINTS BY DAY 5 OF THERAPY	PUBLIC SOURCE	
GSE21231	RS	IBD-00585	RSSEQ	1	RSMETH1	Method of Test or Examination 1	NO REQUIREMENT FOR SECOND LINE MEDICAL INTERVENTION OR SURGERY BY DISCHARGE	PUBLIC SOURCE	
GSE21231	RS	IBD-00585	RSSEQ	1	RSMETH2	Method of Test or Examination 2	PUCAI SCORE LESS THAN OR EQUAL TO 45 POINTS BY DAY 5 OF THERAPY	PUBLIC SOURCE	
GSE21231	RS	IBD-00586	RSSEQ	1	RSMETH1	Method of Test or Examination 1	NO REQUIREMENT FOR SECOND LINE MEDICAL INTERVENTION OR SURGERY BY DISCHARGE	PUBLIC SOURCE	
GSE21231	RS	IBD-00586	RSSEQ	1	RSMETH2	Method of Test or Examination 2	PUCAI SCORE LESS THAN OR EQUAL TO 45 POINTS BY DAY 5 OF THERAPY	PUBLIC SOURCE	
GSE21231	RS	IBD-00587	RSSEQ	1	RSMETH1	Method of Test or Examination 1	NO REQUIREMENT FOR SECOND LINE MEDICAL INTERVENTION OR SURGERY BY DISCHARGE	PUBLIC SOURCE	
GSE21231	RS	IBD-00587	RSSEQ	1	RSMETH2	Method of Test or Examination 2	PUCAI SCORE LESS THAN OR EQUAL TO 45 POINTS BY DAY 5 OF THERAPY	PUBLIC SOURCE	
GSE21231	RS	IBD-00588	RSSEQ	1	RSMETH1	Method of Test or Examination 1	NO REQUIREMENT FOR SECOND LINE MEDICAL INTERVENTION OR SURGERY BY DISCHARGE	PUBLIC SOURCE	
GSE21231	RS	IBD-00588	RSSEQ	1	RSMETH2	Method of Test or Examination 2	PUCAI SCORE LESS THAN OR EQUAL TO 45 POINTS BY DAY 5 OF THERAPY	PUBLIC SOURCE	
GSE21231	RS	IBD-00589	RSSEQ	1	RSMETH1	Method of Test or Examination 1	NO REQUIREMENT FOR SECOND LINE MEDICAL INTERVENTION OR SURGERY BY DISCHARGE	PUBLIC SOURCE	
GSE21231	RS	IBD-00589	RSSEQ	1	RSMETH2	Method of Test or Examination 2	PUCAI SCORE LESS THAN OR EQUAL TO 45 POINTS BY DAY 5 OF THERAPY	PUBLIC SOURCE	
GSE21231	RS	IBD-00590	RSSEQ	1	RSMETH1	Method of Test or Examination 1	NO REQUIREMENT FOR SECOND LINE MEDICAL INTERVENTION OR SURGERY BY DISCHARGE	PUBLIC SOURCE	
GSE21231	RS	IBD-00590	RSSEQ	1	RSMETH2	Method of Test or Examination 2	PUCAI SCORE LESS THAN OR EQUAL TO 45 POINTS BY DAY 5 OF THERAPY	PUBLIC SOURCE	
GSE21231	RS	IBD-00591	RSSEQ	1	RSMETH1	Method of Test or Examination 1	NO REQUIREMENT FOR SECOND LINE MEDICAL INTERVENTION OR SURGERY BY DISCHARGE	PUBLIC SOURCE	
GSE21231	RS	IBD-00591	RSSEQ	1	RSMETH2	Method of Test or Examination 2	PUCAI SCORE LESS THAN OR EQUAL TO 45 POINTS BY DAY 5 OF THERAPY	PUBLIC SOURCE	
GSE21231	RS	IBD-00592	RSSEQ	1	RSMETH1	Method of Test or Examination 1	NO REQUIREMENT FOR SECOND LINE MEDICAL INTERVENTION OR SURGERY BY DISCHARGE	PUBLIC SOURCE	
GSE21231	RS	IBD-00592	RSSEQ	1	RSMETH2	Method of Test or Examination 2	PUCAI SCORE LESS THAN OR EQUAL TO 45 POINTS BY DAY 5 OF THERAPY	PUBLIC SOURCE	
GSE21231	RS	IBD-00593	RSSEQ	1	RSMETH1	Method of Test or Examination 1	NO REQUIREMENT FOR SECOND LINE MEDICAL INTERVENTION OR SURGERY BY DISCHARGE	PUBLIC SOURCE	
GSE21231	RS	IBD-00593	RSSEQ	1	RSMETH2	Method of Test or Examination 2	PUCAI SCORE LESS THAN OR EQUAL TO 45 POINTS BY DAY 5 OF THERAPY	PUBLIC SOURCE	
GSE23597	RS	IBD-00859	RSSEQ	1	RSMETH1	Method of Test or Examination 1	DECREASE IN THE TOTAL MAYO SCORE OF AT LEAST THREE POINTS AND AT LEAST 30%	PUBLIC SOURCE	
GSE23597	RS	IBD-00859	RSSEQ	1	RSMETH2	Method of Test or Examination 2	DECREASE IN THE MAYO SCORE'S SUBSCORE FOR RECTAL BLEEDING OF AT LEAST ONE POINT OR AN ABSOLUTE SUBSCORE FOR RECTAL BLEEDING OF 0 OR 1	PUBLIC SOURCE	
GSE23597	RS	IBD-00859	RSSEQ	2	RSMETH1	Method of Test or Examination 1	DECREASE IN THE TOTAL MAYO SCORE OF AT LEAST THREE POINTS AND AT LEAST 30%	PUBLIC SOURCE	
GSE23597	RS	IBD-00859	RSSEQ	2	RSMETH2	Method of Test or Examination 2	DECREASE IN THE MAYO SCORE'S SUBSCORE FOR RECTAL BLEEDING OF AT LEAST ONE POINT OR AN ABSOLUTE SUBSCORE FOR RECTAL BLEEDING OF 0 OR 1	PUBLIC SOURCE	
GSE23597	RS	IBD-00860	RSSEQ	1	RSMETH1	Method of Test or Examination 1	DECREASE IN THE TOTAL MAYO SCORE OF AT LEAST THREE POINTS AND AT LEAST 30%	PUBLIC SOURCE	
GSE23597	RS	IBD-00860	RSSEQ	1	RSMETH2	Method of Test or Examination 2	DECREASE IN THE MAYO SCORE'S SUBSCORE FOR RECTAL BLEEDING OF AT LEAST ONE POINT OR AN ABSOLUTE SUBSCORE FOR RECTAL BLEEDING OF 0 OR 1	PUBLIC SOURCE	
GSE23597	RS	IBD-00860	RSSEQ	2	RSMETH1	Method of Test or Examination 1	DECREASE IN THE TOTAL MAYO SCORE OF AT LEAST THREE POINTS AND AT LEAST 30%	PUBLIC SOURCE	
GSE23597	RS	IBD-00860	RSSEQ	2	RSMETH2	Method of Test or Examination 2	DECREASE IN THE MAYO SCORE'S SUBSCORE FOR RECTAL BLEEDING OF AT LEAST ONE POINT OR AN ABSOLUTE SUBSCORE FOR RECTAL BLEEDING OF 0 OR 1	PUBLIC SOURCE	
GSE23597	RS	IBD-00861	RSSEQ	1	RSMETH1	Method of Test or Examination 1	DECREASE IN THE TOTAL MAYO SCORE OF AT LEAST THREE POINTS AND AT LEAST 30%	PUBLIC SOURCE	
GSE23597	RS	IBD-00861	RSSEQ	1	RSMETH2	Method of Test or Examination 2	DECREASE IN THE MAYO SCORE'S SUBSCORE FOR RECTAL BLEEDING OF AT LEAST ONE POINT OR AN ABSOLUTE SUBSCORE FOR RECTAL BLEEDING OF 0 OR 1	PUBLIC SOURCE	
GSE23597	RS	IBD-00861	RSSEQ	2	RSMETH1	Method of Test or Examination 1	DECREASE IN THE TOTAL MAYO SCORE OF AT LEAST THREE POINTS AND AT LEAST 30%	PUBLIC SOURCE	
GSE23597	RS	IBD-00861	RSSEQ	2	RSMETH2	Method of Test or Examination 2	DECREASE IN THE MAYO SCORE'S SUBSCORE FOR RECTAL BLEEDING OF AT LEAST ONE POINT OR AN ABSOLUTE SUBSCORE FOR RECTAL BLEEDING OF 0 OR 1	PUBLIC SOURCE	
GSE23597	RS	IBD-00862	RSSEQ	1	RSMETH1	Method of Test or Examination 1	DECREASE IN THE TOTAL MAYO SCORE OF AT LEAST THREE POINTS AND AT LEAST 30%	PUBLIC SOURCE	
GSE23597	RS	IBD-00862	RSSEQ	1	RSMETH2	Method of Test or Examination 2	DECREASE IN THE MAYO SCORE'S SUBSCORE FOR RECTAL BLEEDING OF AT LEAST ONE POINT OR AN ABSOLUTE SUBSCORE FOR RECTAL BLEEDING OF 0 OR 1	PUBLIC SOURCE	
GSE23597	RS	IBD-00862	RSSEQ	2	RSMETH1	Method of Test or Examination 1	DECREASE IN THE TOTAL MAYO SCORE OF AT LEAST THREE POINTS AND AT LEAST 30%	PUBLIC SOURCE	
GSE23597	RS	IBD-00862	RSSEQ	2	RSMETH2	Method of Test or Examination 2	DECREASE IN THE MAYO SCORE'S SUBSCORE FOR RECTAL BLEEDING OF AT LEAST ONE POINT OR AN ABSOLUTE SUBSCORE FOR RECTAL BLEEDING OF 0 OR 1	PUBLIC SOURCE	
GSE23597	RS	IBD-00863	RSSEQ	1	RSMETH1	Method of Test or Examination 1	DECREASE IN THE TOTAL MAYO SCORE OF AT LEAST THREE POINTS AND AT LEAST 30%	PUBLIC SOURCE	
GSE23597	RS	IBD-00863	RSSEQ	1	RSMETH2	Method of Test or Examination 2	DECREASE IN THE MAYO SCORE'S SUBSCORE FOR RECTAL BLEEDING OF AT LEAST ONE POINT OR AN ABSOLUTE SUBSCORE FOR RECTAL BLEEDING OF 0 OR 1	PUBLIC SOURCE	
GSE23597	RS	IBD-00863	RSSEQ	2	RSMETH1	Method of Test or Examination 1	DECREASE IN THE TOTAL MAYO SCORE OF AT LEAST THREE POINTS AND AT LEAST 30%	PUBLIC SOURCE	
GSE23597	RS	IBD-00863	RSSEQ	2	RSMETH2	Method of Test or Examination 2	DECREASE IN THE MAYO SCORE'S SUBSCORE FOR RECTAL BLEEDING OF AT LEAST ONE POINT OR AN ABSOLUTE SUBSCORE FOR RECTAL BLEEDING OF 0 OR 1	PUBLIC SOURCE	
GSE23597	RS	IBD-00864	RSSEQ	1	RSMETH1	Method of Test or Examination 1	DECREASE IN THE TOTAL MAYO SCORE OF AT LEAST THREE POINTS AND AT LEAST 30%	PUBLIC SOURCE	
GSE23597	RS	IBD-00864	RSSEQ	1	RSMETH2	Method of Test or Examination 2	DECREASE IN THE MAYO SCORE'S SUBSCORE FOR RECTAL BLEEDING OF AT LEAST ONE POINT OR AN ABSOLUTE SUBSCORE FOR RECTAL BLEEDING OF 0 OR 1	PUBLIC SOURCE	
GSE23597	RS	IBD-00864	RSSEQ	2	RSMETH1	Method of Test or Examination 1	DECREASE IN THE TOTAL MAYO SCORE OF AT LEAST THREE POINTS AND AT LEAST 30%	PUBLIC SOURCE	
GSE23597	RS	IBD-00864	RSSEQ	2	RSMETH2	Method of Test or Examination 2	DECREASE IN THE MAYO SCORE'S SUBSCORE FOR RECTAL BLEEDING OF AT LEAST ONE POINT OR AN ABSOLUTE SUBSCORE FOR RECTAL BLEEDING OF 0 OR 1	PUBLIC SOURCE	
GSE23597	RS	IBD-00865	RSSEQ	1	RSMETH1	Method of Test or Examination 1	DECREASE IN THE TOTAL MAYO SCORE OF AT LEAST THREE POINTS AND AT LEAST 30%	PUBLIC SOURCE	
GSE23597	RS	IBD-00865	RSSEQ	1	RSMETH2	Method of Test or Examination 2	DECREASE IN THE MAYO SCORE'S SUBSCORE FOR RECTAL BLEEDING OF AT LEAST ONE POINT OR AN ABSOLUTE SUBSCORE FOR RECTAL BLEEDING OF 0 OR 1	PUBLIC SOURCE	
GSE23597	RS	IBD-00865	RSSEQ	2	RSMETH1	Method of Test or Examination 1	DECREASE IN THE TOTAL MAYO SCORE OF AT LEAST THREE POINTS AND AT LEAST 30%	PUBLIC SOURCE	
GSE23597	RS	IBD-00865	RSSEQ	2	RSMETH2	Method of Test or Examination 2	DECREASE IN THE MAYO SCORE'S SUBSCORE FOR RECTAL BLEEDING OF AT LEAST ONE POINT OR AN ABSOLUTE SUBSCORE FOR RECTAL BLEEDING OF 0 OR 1	PUBLIC SOURCE	
GSE23597	RS	IBD-00866	RSSEQ	1	RSMETH1	Method of Test or Examination 1	DECREASE IN THE TOTAL MAYO SCORE OF AT LEAST THREE POINTS AND AT LEAST 30%	PUBLIC SOURCE	
GSE23597	RS	IBD-00866	RSSEQ	1	RSMETH2	Method of Test or Examination 2	DECREASE IN THE MAYO SCORE'S SUBSCORE FOR RECTAL BLEEDING OF AT LEAST ONE POINT OR AN ABSOLUTE SUBSCORE FOR RECTAL BLEEDING OF 0 OR 1	PUBLIC SOURCE	
GSE23597	RS	IBD-00866	RSSEQ	2	RSMETH1	Method of Test or Examination 1	DECREASE IN THE TOTAL MAYO SCORE OF AT LEAST THREE POINTS AND AT LEAST 30%	PUBLIC SOURCE	
GSE23597	RS	IBD-00866	RSSEQ	2	RSMETH2	Method of Test or Examination 2	DECREASE IN THE MAYO SCORE'S SUBSCORE FOR RECTAL BLEEDING OF AT LEAST ONE POINT OR AN ABSOLUTE SUBSCORE FOR RECTAL BLEEDING OF 0 OR 1	PUBLIC SOURCE	
GSE23597	RS	IBD-00867	RSSEQ	1	RSMETH1	Method of Test or Examination 1	DECREASE IN THE TOTAL MAYO SCORE OF AT LEAST THREE POINTS AND AT LEAST 30%	PUBLIC SOURCE	
GSE23597	RS	IBD-00867	RSSEQ	1	RSMETH2	Method of Test or Examination 2	DECREASE IN THE MAYO SCORE'S SUBSCORE FOR RECTAL BLEEDING OF AT LEAST ONE POINT OR AN ABSOLUTE SUBSCORE FOR RECTAL BLEEDING OF 0 OR 1	PUBLIC SOURCE	
GSE23597	RS	IBD-00867	RSSEQ	2	RSMETH1	Method of Test or Examination 1	DECREASE IN THE TOTAL MAYO SCORE OF AT LEAST THREE POINTS AND AT LEAST 30%	PUBLIC SOURCE	
GSE23597	RS	IBD-00867	RSSEQ	2	RSMETH2	Method of Test or Examination 2	DECREASE IN THE MAYO SCORE'S SUBSCORE FOR RECTAL BLEEDING OF AT LEAST ONE POINT OR AN ABSOLUTE SUBSCORE FOR RECTAL BLEEDING OF 0 OR 1	PUBLIC SOURCE	
GSE23597	RS	IBD-00868	RSSEQ	1	RSMETH1	Method of Test or Examination 1	DECREASE IN THE TOTAL MAYO SCORE OF AT LEAST THREE POINTS AND AT LEAST 30%	PUBLIC SOURCE	
GSE23597	RS	IBD-00868	RSSEQ	1	RSMETH2	Method of Test or Examination 2	DECREASE IN THE MAYO SCORE'S SUBSCORE FOR RECTAL BLEEDING OF AT LEAST ONE POINT OR AN ABSOLUTE SUBSCORE FOR RECTAL BLEEDING OF 0 OR 1	PUBLIC SOURCE	
GSE23597	RS	IBD-00868	RSSEQ	2	RSMETH1	Method of Test or Examination 1	DECREASE IN THE TOTAL MAYO SCORE OF AT LEAST THREE POINTS AND AT LEAST 30%	PUBLIC SOURCE	
GSE23597	RS	IBD-00868	RSSEQ	2	RSMETH2	Method of Test or Examination 2	DECREASE IN THE MAYO SCORE'S SUBSCORE FOR RECTAL BLEEDING OF AT LEAST ONE POINT OR AN ABSOLUTE SUBSCORE FOR RECTAL BLEEDING OF 0 OR 1	PUBLIC SOURCE	
GSE23597	RS	IBD-00869	RSSEQ	1	RSMETH1	Method of Test or Examination 1	DECREASE IN THE TOTAL MAYO SCORE OF AT LEAST THREE POINTS AND AT LEAST 30%	PUBLIC SOURCE	
GSE23597	RS	IBD-00869	RSSEQ	1	RSMETH2	Method of Test or Examination 2	DECREASE IN THE MAYO SCORE'S SUBSCORE FOR RECTAL BLEEDING OF AT LEAST ONE POINT OR AN ABSOLUTE SUBSCORE FOR RECTAL BLEEDING OF 0 OR 1	PUBLIC SOURCE	
GSE23597	RS	IBD-00869	RSSEQ	2	RSMETH1	Method of Test or Examination 1	DECREASE IN THE TOTAL MAYO SCORE OF AT LEAST THREE POINTS AND AT LEAST 30%	PUBLIC SOURCE	
GSE23597	RS	IBD-00869	RSSEQ	2	RSMETH2	Method of Test or Examination 2	DECREASE IN THE MAYO SCORE'S SUBSCORE FOR RECTAL BLEEDING OF AT LEAST ONE POINT OR AN ABSOLUTE SUBSCORE FOR RECTAL BLEEDING OF 0 OR 1	PUBLIC SOURCE	
GSE23597	RS	IBD-00870	RSSEQ	1	RSMETH1	Method of Test or Examination 1	DECREASE IN THE TOTAL MAYO SCORE OF AT LEAST THREE POINTS AND AT LEAST 30%	PUBLIC SOURCE	
GSE23597	RS	IBD-00870	RSSEQ	1	RSMETH2	Method of Test or Examination 2	DECREASE IN THE MAYO SCORE'S SUBSCORE FOR RECTAL BLEEDING OF AT LEAST ONE POINT OR AN ABSOLUTE SUBSCORE FOR RECTAL BLEEDING OF 0 OR 1	PUBLIC SOURCE	
GSE23597	RS	IBD-00870	RSSEQ	2	RSMETH1	Method of Test or Examination 1	DECREASE IN THE TOTAL MAYO SCORE OF AT LEAST THREE POINTS AND AT LEAST 30%	PUBLIC SOURCE	
GSE23597	RS	IBD-00870	RSSEQ	2	RSMETH2	Method of Test or Examination 2	DECREASE IN THE MAYO SCORE'S SUBSCORE FOR RECTAL BLEEDING OF AT LEAST ONE POINT OR AN ABSOLUTE SUBSCORE FOR RECTAL BLEEDING OF 0 OR 1	PUBLIC SOURCE	
GSE23597	RS	IBD-00871	RSSEQ	1	RSMETH1	Method of Test or Examination 1	DECREASE IN THE TOTAL MAYO SCORE OF AT LEAST THREE POINTS AND AT LEAST 30%	PUBLIC SOURCE	
GSE23597	RS	IBD-00871	RSSEQ	1	RSMETH2	Method of Test or Examination 2	DECREASE IN THE MAYO SCORE'S SUBSCORE FOR RECTAL BLEEDING OF AT LEAST ONE POINT OR AN ABSOLUTE SUBSCORE FOR RECTAL BLEEDING OF 0 OR 1	PUBLIC SOURCE	
GSE23597	RS	IBD-00871	RSSEQ	2	RSMETH1	Method of Test or Examination 1	DECREASE IN THE TOTAL MAYO SCORE OF AT LEAST THREE POINTS AND AT LEAST 30%	PUBLIC SOURCE	
GSE23597	RS	IBD-00871	RSSEQ	2	RSMETH2	Method of Test or Examination 2	DECREASE IN THE MAYO SCORE'S SUBSCORE FOR RECTAL BLEEDING OF AT LEAST ONE POINT OR AN ABSOLUTE SUBSCORE FOR RECTAL BLEEDING OF 0 OR 1	PUBLIC SOURCE	
GSE23597	RS	IBD-00872	RSSEQ	1	RSMETH1	Method of Test or Examination 1	DECREASE IN THE TOTAL MAYO SCORE OF AT LEAST THREE POINTS AND AT LEAST 30%	PUBLIC SOURCE	
GSE23597	RS	IBD-00872	RSSEQ	1	RSMETH2	Method of Test or Examination 2	DECREASE IN THE MAYO SCORE'S SUBSCORE FOR RECTAL BLEEDING OF AT LEAST ONE POINT OR AN ABSOLUTE SUBSCORE FOR RECTAL BLEEDING OF 0 OR 1	PUBLIC SOURCE	
GSE23597	RS	IBD-00872	RSSEQ	2	RSMETH1	Method of Test or Examination 1	DECREASE IN THE TOTAL MAYO SCORE OF AT LEAST THREE POINTS AND AT LEAST 30%	PUBLIC SOURCE	
GSE23597	RS	IBD-00872	RSSEQ	2	RSMETH2	Method of Test or Examination 2	DECREASE IN THE MAYO SCORE'S SUBSCORE FOR RECTAL BLEEDING OF AT LEAST ONE POINT OR AN ABSOLUTE SUBSCORE FOR RECTAL BLEEDING OF 0 OR 1	PUBLIC SOURCE	
GSE23597	RS	IBD-00873	RSSEQ	1	RSMETH1	Method of Test or Examination 1	DECREASE IN THE TOTAL MAYO SCORE OF AT LEAST THREE POINTS AND AT LEAST 30%	PUBLIC SOURCE	
GSE23597	RS	IBD-00873	RSSEQ	1	RSMETH2	Method of Test or Examination 2	DECREASE IN THE MAYO SCORE'S SUBSCORE FOR RECTAL BLEEDING OF AT LEAST ONE POINT OR AN ABSOLUTE SUBSCORE FOR RECTAL BLEEDING OF 0 OR 1	PUBLIC SOURCE	
GSE23597	RS	IBD-00873	RSSEQ	2	RSMETH1	Method of Test or Examination 1	DECREASE IN THE TOTAL MAYO SCORE OF AT LEAST THREE POINTS AND AT LEAST 30%	PUBLIC SOURCE	
GSE23597	RS	IBD-00873	RSSEQ	2	RSMETH2	Method of Test or Examination 2	DECREASE IN THE MAYO SCORE'S SUBSCORE FOR RECTAL BLEEDING OF AT LEAST ONE POINT OR AN ABSOLUTE SUBSCORE FOR RECTAL BLEEDING OF 0 OR 1	PUBLIC SOURCE	
GSE23597	RS	IBD-00874	RSSEQ	1	RSMETH1	Method of Test or Examination 1	DECREASE IN THE TOTAL MAYO SCORE OF AT LEAST THREE POINTS AND AT LEAST 30%	PUBLIC SOURCE	
GSE23597	RS	IBD-00874	RSSEQ	1	RSMETH2	Method of Test or Examination 2	DECREASE IN THE MAYO SCORE'S SUBSCORE FOR RECTAL BLEEDING OF AT LEAST ONE POINT OR AN ABSOLUTE SUBSCORE FOR RECTAL BLEEDING OF 0 OR 1	PUBLIC SOURCE	
GSE23597	RS	IBD-00874	RSSEQ	2	RSMETH1	Method of Test or Examination 1	DECREASE IN THE TOTAL MAYO SCORE OF AT LEAST THREE POINTS AND AT LEAST 30%	PUBLIC SOURCE	
GSE23597	RS	IBD-00874	RSSEQ	2	RSMETH2	Method of Test or Examination 2	DECREASE IN THE MAYO SCORE'S SUBSCORE FOR RECTAL BLEEDING OF AT LEAST ONE POINT OR AN ABSOLUTE SUBSCORE FOR RECTAL BLEEDING OF 0 OR 1	PUBLIC SOURCE	
GSE23597	RS	IBD-00875	RSSEQ	1	RSMETH1	Method of Test or Examination 1	DECREASE IN THE TOTAL MAYO SCORE OF AT LEAST THREE POINTS AND AT LEAST 30%	PUBLIC SOURCE	
GSE23597	RS	IBD-00875	RSSEQ	1	RSMETH2	Method of Test or Examination 2	DECREASE IN THE MAYO SCORE'S SUBSCORE FOR RECTAL BLEEDING OF AT LEAST ONE POINT OR AN ABSOLUTE SUBSCORE FOR RECTAL BLEEDING OF 0 OR 1	PUBLIC SOURCE	
GSE23597	RS	IBD-00875	RSSEQ	2	RSMETH1	Method of Test or Examination 1	DECREASE IN THE TOTAL MAYO SCORE OF AT LEAST THREE POINTS AND AT LEAST 30%	PUBLIC SOURCE	
GSE23597	RS	IBD-00875	RSSEQ	2	RSMETH2	Method of Test or Examination 2	DECREASE IN THE MAYO SCORE'S SUBSCORE FOR RECTAL BLEEDING OF AT LEAST ONE POINT OR AN ABSOLUTE SUBSCORE FOR RECTAL BLEEDING OF 0 OR 1	PUBLIC SOURCE	
GSE23597	RS	IBD-00876	RSSEQ	1	RSMETH1	Method of Test or Examination 1	DECREASE IN THE TOTAL MAYO SCORE OF AT LEAST THREE POINTS AND AT LEAST 30%	PUBLIC SOURCE	
GSE23597	RS	IBD-00876	RSSEQ	1	RSMETH2	Method of Test or Examination 2	DECREASE IN THE MAYO SCORE'S SUBSCORE FOR RECTAL BLEEDING OF AT LEAST ONE POINT OR AN ABSOLUTE SUBSCORE FOR RECTAL BLEEDING OF 0 OR 1	PUBLIC SOURCE	
GSE23597	RS	IBD-00876	RSSEQ	2	RSMETH1	Method of Test or Examination 1	DECREASE IN THE TOTAL MAYO SCORE OF AT LEAST THREE POINTS AND AT LEAST 30%	PUBLIC SOURCE	
GSE23597	RS	IBD-00876	RSSEQ	2	RSMETH2	Method of Test or Examination 2	DECREASE IN THE MAYO SCORE'S SUBSCORE FOR RECTAL BLEEDING OF AT LEAST ONE POINT OR AN ABSOLUTE SUBSCORE FOR RECTAL BLEEDING OF 0 OR 1	PUBLIC SOURCE	
GSE23597	RS	IBD-00877	RSSEQ	1	RSMETH1	Method of Test or Examination 1	DECREASE IN THE TOTAL MAYO SCORE OF AT LEAST THREE POINTS AND AT LEAST 30%	PUBLIC SOURCE	
GSE23597	RS	IBD-00877	RSSEQ	1	RSMETH2	Method of Test or Examination 2	DECREASE IN THE MAYO SCORE'S SUBSCORE FOR RECTAL BLEEDING OF AT LEAST ONE POINT OR AN ABSOLUTE SUBSCORE FOR RECTAL BLEEDING OF 0 OR 1	PUBLIC SOURCE	
GSE23597	RS	IBD-00877	RSSEQ	2	RSMETH1	Method of Test or Examination 1	DECREASE IN THE TOTAL MAYO SCORE OF AT LEAST THREE POINTS AND AT LEAST 30%	PUBLIC SOURCE	
GSE23597	RS	IBD-00877	RSSEQ	2	RSMETH2	Method of Test or Examination 2	DECREASE IN THE MAYO SCORE'S SUBSCORE FOR RECTAL BLEEDING OF AT LEAST ONE POINT OR AN ABSOLUTE SUBSCORE FOR RECTAL BLEEDING OF 0 OR 1	PUBLIC SOURCE	
GSE23597	RS	IBD-00878	RSSEQ	1	RSMETH1	Method of Test or Examination 1	DECREASE IN THE TOTAL MAYO SCORE OF AT LEAST THREE POINTS AND AT LEAST 30%	PUBLIC SOURCE	
GSE23597	RS	IBD-00878	RSSEQ	1	RSMETH2	Method of Test or Examination 2	DECREASE IN THE MAYO SCORE'S SUBSCORE FOR RECTAL BLEEDING OF AT LEAST ONE POINT OR AN ABSOLUTE SUBSCORE FOR RECTAL BLEEDING OF 0 OR 1	PUBLIC SOURCE	
GSE23597	RS	IBD-00878	RSSEQ	2	RSMETH1	Method of Test or Examination 1	DECREASE IN THE TOTAL MAYO SCORE OF AT LEAST THREE POINTS AND AT LEAST 30%	PUBLIC SOURCE	
GSE23597	RS	IBD-00878	RSSEQ	2	RSMETH2	Method of Test or Examination 2	DECREASE IN THE MAYO SCORE'S SUBSCORE FOR RECTAL BLEEDING OF AT LEAST ONE POINT OR AN ABSOLUTE SUBSCORE FOR RECTAL BLEEDING OF 0 OR 1	PUBLIC SOURCE	
GSE23597	RS	IBD-00879	RSSEQ	1	RSMETH1	Method of Test or Examination 1	DECREASE IN THE TOTAL MAYO SCORE OF AT LEAST THREE POINTS AND AT LEAST 30%	PUBLIC SOURCE	
GSE23597	RS	IBD-00879	RSSEQ	1	RSMETH2	Method of Test or Examination 2	DECREASE IN THE MAYO SCORE'S SUBSCORE FOR RECTAL BLEEDING OF AT LEAST ONE POINT OR AN ABSOLUTE SUBSCORE FOR RECTAL BLEEDING OF 0 OR 1	PUBLIC SOURCE	
GSE23597	RS	IBD-00879	RSSEQ	2	RSMETH1	Method of Test or Examination 1	DECREASE IN THE TOTAL MAYO SCORE OF AT LEAST THREE POINTS AND AT LEAST 30%	PUBLIC SOURCE	
GSE23597	RS	IBD-00879	RSSEQ	2	RSMETH2	Method of Test or Examination 2	DECREASE IN THE MAYO SCORE'S SUBSCORE FOR RECTAL BLEEDING OF AT LEAST ONE POINT OR AN ABSOLUTE SUBSCORE FOR RECTAL BLEEDING OF 0 OR 1	PUBLIC SOURCE	
GSE23597	RS	IBD-00880	RSSEQ	1	RSMETH1	Method of Test or Examination 1	DECREASE IN THE TOTAL MAYO SCORE OF AT LEAST THREE POINTS AND AT LEAST 30%	PUBLIC SOURCE	
GSE23597	RS	IBD-00880	RSSEQ	1	RSMETH2	Method of Test or Examination 2	DECREASE IN THE MAYO SCORE'S SUBSCORE FOR RECTAL BLEEDING OF AT LEAST ONE POINT OR AN ABSOLUTE SUBSCORE FOR RECTAL BLEEDING OF 0 OR 1	PUBLIC SOURCE	
GSE23597	RS	IBD-00880	RSSEQ	2	RSMETH1	Method of Test or Examination 1	DECREASE IN THE TOTAL MAYO SCORE OF AT LEAST THREE POINTS AND AT LEAST 30%	PUBLIC SOURCE	
GSE23597	RS	IBD-00880	RSSEQ	2	RSMETH2	Method of Test or Examination 2	DECREASE IN THE MAYO SCORE'S SUBSCORE FOR RECTAL BLEEDING OF AT LEAST ONE POINT OR AN ABSOLUTE SUBSCORE FOR RECTAL BLEEDING OF 0 OR 1	PUBLIC SOURCE	
GSE23597	RS	IBD-00881	RSSEQ	1	RSMETH1	Method of Test or Examination 1	DECREASE IN THE TOTAL MAYO SCORE OF AT LEAST THREE POINTS AND AT LEAST 30%	PUBLIC SOURCE	
GSE23597	RS	IBD-00881	RSSEQ	1	RSMETH2	Method of Test or Examination 2	DECREASE IN THE MAYO SCORE'S SUBSCORE FOR RECTAL BLEEDING OF AT LEAST ONE POINT OR AN ABSOLUTE SUBSCORE FOR RECTAL BLEEDING OF 0 OR 1	PUBLIC SOURCE	
GSE23597	RS	IBD-00881	RSSEQ	2	RSMETH1	Method of Test or Examination 1	DECREASE IN THE TOTAL MAYO SCORE OF AT LEAST THREE POINTS AND AT LEAST 30%	PUBLIC SOURCE	
GSE23597	RS	IBD-00881	RSSEQ	2	RSMETH2	Method of Test or Examination 2	DECREASE IN THE MAYO SCORE'S SUBSCORE FOR RECTAL BLEEDING OF AT LEAST ONE POINT OR AN ABSOLUTE SUBSCORE FOR RECTAL BLEEDING OF 0 OR 1	PUBLIC SOURCE	
GSE23597	RS	IBD-00882	RSSEQ	1	RSMETH1	Method of Test or Examination 1	DECREASE IN THE TOTAL MAYO SCORE OF AT LEAST THREE POINTS AND AT LEAST 30%	PUBLIC SOURCE	
GSE23597	RS	IBD-00882	RSSEQ	1	RSMETH2	Method of Test or Examination 2	DECREASE IN THE MAYO SCORE'S SUBSCORE FOR RECTAL BLEEDING OF AT LEAST ONE POINT OR AN ABSOLUTE SUBSCORE FOR RECTAL BLEEDING OF 0 OR 1	PUBLIC SOURCE	
GSE23597	RS	IBD-00882	RSSEQ	2	RSMETH1	Method of Test or Examination 1	DECREASE IN THE TOTAL MAYO SCORE OF AT LEAST THREE POINTS AND AT LEAST 30%	PUBLIC SOURCE	
GSE23597	RS	IBD-00882	RSSEQ	2	RSMETH2	Method of Test or Examination 2	DECREASE IN THE MAYO SCORE'S SUBSCORE FOR RECTAL BLEEDING OF AT LEAST ONE POINT OR AN ABSOLUTE SUBSCORE FOR RECTAL BLEEDING OF 0 OR 1	PUBLIC SOURCE	
GSE23597	RS	IBD-00883	RSSEQ	1	RSMETH1	Method of Test or Examination 1	DECREASE IN THE TOTAL MAYO SCORE OF AT LEAST THREE POINTS AND AT LEAST 30%	PUBLIC SOURCE	
GSE23597	RS	IBD-00883	RSSEQ	1	RSMETH2	Method of Test or Examination 2	DECREASE IN THE MAYO SCORE'S SUBSCORE FOR RECTAL BLEEDING OF AT LEAST ONE POINT OR AN ABSOLUTE SUBSCORE FOR RECTAL BLEEDING OF 0 OR 1	PUBLIC SOURCE	
GSE23597	RS	IBD-00883	RSSEQ	2	RSMETH1	Method of Test or Examination 1	DECREASE IN THE TOTAL MAYO SCORE OF AT LEAST THREE POINTS AND AT LEAST 30%	PUBLIC SOURCE	
GSE23597	RS	IBD-00883	RSSEQ	2	RSMETH2	Method of Test or Examination 2	DECREASE IN THE MAYO SCORE'S SUBSCORE FOR RECTAL BLEEDING OF AT LEAST ONE POINT OR AN ABSOLUTE SUBSCORE FOR RECTAL BLEEDING OF 0 OR 1	PUBLIC SOURCE	
GSE23597	RS	IBD-00884	RSSEQ	1	RSMETH1	Method of Test or Examination 1	DECREASE IN THE TOTAL MAYO SCORE OF AT LEAST THREE POINTS AND AT LEAST 30%	PUBLIC SOURCE	
GSE23597	RS	IBD-00884	RSSEQ	1	RSMETH2	Method of Test or Examination 2	DECREASE IN THE MAYO SCORE'S SUBSCORE FOR RECTAL BLEEDING OF AT LEAST ONE POINT OR AN ABSOLUTE SUBSCORE FOR RECTAL BLEEDING OF 0 OR 1	PUBLIC SOURCE	
GSE23597	RS	IBD-00884	RSSEQ	2	RSMETH1	Method of Test or Examination 1	DECREASE IN THE TOTAL MAYO SCORE OF AT LEAST THREE POINTS AND AT LEAST 30%	PUBLIC SOURCE	
GSE23597	RS	IBD-00884	RSSEQ	2	RSMETH2	Method of Test or Examination 2	DECREASE IN THE MAYO SCORE'S SUBSCORE FOR RECTAL BLEEDING OF AT LEAST ONE POINT OR AN ABSOLUTE SUBSCORE FOR RECTAL BLEEDING OF 0 OR 1	PUBLIC SOURCE	
GSE23597	RS	IBD-00885	RSSEQ	1	RSMETH1	Method of Test or Examination 1	DECREASE IN THE TOTAL MAYO SCORE OF AT LEAST THREE POINTS AND AT LEAST 30%	PUBLIC SOURCE	
GSE23597	RS	IBD-00885	RSSEQ	1	RSMETH2	Method of Test or Examination 2	DECREASE IN THE MAYO SCORE'S SUBSCORE FOR RECTAL BLEEDING OF AT LEAST ONE POINT OR AN ABSOLUTE SUBSCORE FOR RECTAL BLEEDING OF 0 OR 1	PUBLIC SOURCE	
GSE23597	RS	IBD-00885	RSSEQ	2	RSMETH1	Method of Test or Examination 1	DECREASE IN THE TOTAL MAYO SCORE OF AT LEAST THREE POINTS AND AT LEAST 30%	PUBLIC SOURCE	
GSE23597	RS	IBD-00885	RSSEQ	2	RSMETH2	Method of Test or Examination 2	DECREASE IN THE MAYO SCORE'S SUBSCORE FOR RECTAL BLEEDING OF AT LEAST ONE POINT OR AN ABSOLUTE SUBSCORE FOR RECTAL BLEEDING OF 0 OR 1	PUBLIC SOURCE	
GSE23597	RS	IBD-00886	RSSEQ	1	RSMETH1	Method of Test or Examination 1	DECREASE IN THE TOTAL MAYO SCORE OF AT LEAST THREE POINTS AND AT LEAST 30%	PUBLIC SOURCE	
GSE23597	RS	IBD-00886	RSSEQ	1	RSMETH2	Method of Test or Examination 2	DECREASE IN THE MAYO SCORE'S SUBSCORE FOR RECTAL BLEEDING OF AT LEAST ONE POINT OR AN ABSOLUTE SUBSCORE FOR RECTAL BLEEDING OF 0 OR 1	PUBLIC SOURCE	
GSE23597	RS	IBD-00886	RSSEQ	2	RSMETH1	Method of Test or Examination 1	DECREASE IN THE TOTAL MAYO SCORE OF AT LEAST THREE POINTS AND AT LEAST 30%	PUBLIC SOURCE	
GSE23597	RS	IBD-00886	RSSEQ	2	RSMETH2	Method of Test or Examination 2	DECREASE IN THE MAYO SCORE'S SUBSCORE FOR RECTAL BLEEDING OF AT LEAST ONE POINT OR AN ABSOLUTE SUBSCORE FOR RECTAL BLEEDING OF 0 OR 1	PUBLIC SOURCE	
GSE23597	RS	IBD-00887	RSSEQ	1	RSMETH1	Method of Test or Examination 1	DECREASE IN THE TOTAL MAYO SCORE OF AT LEAST THREE POINTS AND AT LEAST 30%	PUBLIC SOURCE	
GSE23597	RS	IBD-00887	RSSEQ	1	RSMETH2	Method of Test or Examination 2	DECREASE IN THE MAYO SCORE'S SUBSCORE FOR RECTAL BLEEDING OF AT LEAST ONE POINT OR AN ABSOLUTE SUBSCORE FOR RECTAL BLEEDING OF 0 OR 1	PUBLIC SOURCE	
GSE23597	RS	IBD-00887	RSSEQ	2	RSMETH1	Method of Test or Examination 1	DECREASE IN THE TOTAL MAYO SCORE OF AT LEAST THREE POINTS AND AT LEAST 30%	PUBLIC SOURCE	
GSE23597	RS	IBD-00887	RSSEQ	2	RSMETH2	Method of Test or Examination 2	DECREASE IN THE MAYO SCORE'S SUBSCORE FOR RECTAL BLEEDING OF AT LEAST ONE POINT OR AN ABSOLUTE SUBSCORE FOR RECTAL BLEEDING OF 0 OR 1	PUBLIC SOURCE	
GSE23597	RS	IBD-00888	RSSEQ	1	RSMETH1	Method of Test or Examination 1	DECREASE IN THE TOTAL MAYO SCORE OF AT LEAST THREE POINTS AND AT LEAST 30%	PUBLIC SOURCE	
GSE23597	RS	IBD-00888	RSSEQ	1	RSMETH2	Method of Test or Examination 2	DECREASE IN THE MAYO SCORE'S SUBSCORE FOR RECTAL BLEEDING OF AT LEAST ONE POINT OR AN ABSOLUTE SUBSCORE FOR RECTAL BLEEDING OF 0 OR 1	PUBLIC SOURCE	
GSE23597	RS	IBD-00888	RSSEQ	2	RSMETH1	Method of Test or Examination 1	DECREASE IN THE TOTAL MAYO SCORE OF AT LEAST THREE POINTS AND AT LEAST 30%	PUBLIC SOURCE	
GSE23597	RS	IBD-00888	RSSEQ	2	RSMETH2	Method of Test or Examination 2	DECREASE IN THE MAYO SCORE'S SUBSCORE FOR RECTAL BLEEDING OF AT LEAST ONE POINT OR AN ABSOLUTE SUBSCORE FOR RECTAL BLEEDING OF 0 OR 1	PUBLIC SOURCE	
GSE16879	RS	IBD-00921	RSSEQ	1	RSMETH1	Method of Test or Examination 1	DECREASE TO A MAYO ENDOSCOPIC SUBSCORE OF 0 OR 1	PUBLIC SOURCE	
GSE16879	RS	IBD-00921	RSSEQ	1	RSMETH2	Method of Test or Examination 2	DECREASE TO GRADE 0 OR 1 ON THE HISTOLOGICAL SCORE	PUBLIC SOURCE	
GSE16879	RS	IBD-00921	RSSEQ	1	RSMETH3	Method of Test or Examination 3	COMPLETE MUCOSAL HEALING	PUBLIC SOURCE	
GSE16879	RS	IBD-00922	RSSEQ	1	RSMETH1	Method of Test or Examination 1	DECREASE TO A MAYO ENDOSCOPIC SUBSCORE OF 0 OR 1	PUBLIC SOURCE	
GSE16879	RS	IBD-00922	RSSEQ	1	RSMETH2	Method of Test or Examination 2	DECREASE TO GRADE 0 OR 1 ON THE HISTOLOGICAL SCORE	PUBLIC SOURCE	
GSE16879	RS	IBD-00922	RSSEQ	1	RSMETH3	Method of Test or Examination 3	COMPLETE MUCOSAL HEALING	PUBLIC SOURCE	
GSE16879	RS	IBD-00924	RSSEQ	1	RSMETH1	Method of Test or Examination 1	DECREASE TO A MAYO ENDOSCOPIC SUBSCORE OF 0 OR 1	PUBLIC SOURCE	
GSE16879	RS	IBD-00924	RSSEQ	1	RSMETH2	Method of Test or Examination 2	DECREASE TO GRADE 0 OR 1 ON THE HISTOLOGICAL SCORE	PUBLIC SOURCE	
GSE16879	RS	IBD-00924	RSSEQ	1	RSMETH3	Method of Test or Examination 3	COMPLETE MUCOSAL HEALING	PUBLIC SOURCE	
GSE16879	RS	IBD-00926	RSSEQ	1	RSMETH1	Method of Test or Examination 1	DECREASE TO A MAYO ENDOSCOPIC SUBSCORE OF 0 OR 1	PUBLIC SOURCE	
GSE16879	RS	IBD-00926	RSSEQ	1	RSMETH2	Method of Test or Examination 2	DECREASE TO GRADE 0 OR 1 ON THE HISTOLOGICAL SCORE	PUBLIC SOURCE	
GSE16879	RS	IBD-00926	RSSEQ	1	RSMETH3	Method of Test or Examination 3	COMPLETE MUCOSAL HEALING	PUBLIC SOURCE	
GSE16879	RS	IBD-00927	RSSEQ	1	RSMETH1	Method of Test or Examination 1	DECREASE TO A MAYO ENDOSCOPIC SUBSCORE OF 0 OR 1	PUBLIC SOURCE	
GSE16879	RS	IBD-00927	RSSEQ	1	RSMETH2	Method of Test or Examination 2	DECREASE TO GRADE 0 OR 1 ON THE HISTOLOGICAL SCORE	PUBLIC SOURCE	
GSE16879	RS	IBD-00927	RSSEQ	1	RSMETH3	Method of Test or Examination 3	COMPLETE MUCOSAL HEALING	PUBLIC SOURCE	
GSE16879	RS	IBD-00928	RSSEQ	1	RSMETH1	Method of Test or Examination 1	DECREASE TO A MAYO ENDOSCOPIC SUBSCORE OF 0 OR 1	PUBLIC SOURCE	
GSE16879	RS	IBD-00928	RSSEQ	1	RSMETH2	Method of Test or Examination 2	DECREASE TO GRADE 0 OR 1 ON THE HISTOLOGICAL SCORE	PUBLIC SOURCE	
GSE16879	RS	IBD-00928	RSSEQ	1	RSMETH3	Method of Test or Examination 3	COMPLETE MUCOSAL HEALING	PUBLIC SOURCE	
GSE16879	RS	IBD-00929	RSSEQ	1	RSMETH1	Method of Test or Examination 1	DECREASE TO A MAYO ENDOSCOPIC SUBSCORE OF 0 OR 1	PUBLIC SOURCE	
GSE16879	RS	IBD-00929	RSSEQ	1	RSMETH2	Method of Test or Examination 2	DECREASE TO GRADE 0 OR 1 ON THE HISTOLOGICAL SCORE	PUBLIC SOURCE	
GSE16879	RS	IBD-00929	RSSEQ	1	RSMETH3	Method of Test or Examination 3	COMPLETE MUCOSAL HEALING	PUBLIC SOURCE	
GSE16879	RS	IBD-00930	RSSEQ	1	RSMETH1	Method of Test or Examination 1	DECREASE TO A MAYO ENDOSCOPIC SUBSCORE OF 0 OR 1	PUBLIC SOURCE	
GSE16879	RS	IBD-00930	RSSEQ	1	RSMETH2	Method of Test or Examination 2	DECREASE TO GRADE 0 OR 1 ON THE HISTOLOGICAL SCORE	PUBLIC SOURCE	
GSE16879	RS	IBD-00930	RSSEQ	1	RSMETH3	Method of Test or Examination 3	COMPLETE MUCOSAL HEALING	PUBLIC SOURCE	
GSE16879	RS	IBD-00932	RSSEQ	1	RSMETH1	Method of Test or Examination 1	DECREASE TO A MAYO ENDOSCOPIC SUBSCORE OF 0 OR 1	PUBLIC SOURCE	
GSE16879	RS	IBD-00932	RSSEQ	1	RSMETH2	Method of Test or Examination 2	DECREASE TO GRADE 0 OR 1 ON THE HISTOLOGICAL SCORE	PUBLIC SOURCE	
GSE16879	RS	IBD-00932	RSSEQ	1	RSMETH3	Method of Test or Examination 3	COMPLETE MUCOSAL HEALING	PUBLIC SOURCE	
GSE16879	RS	IBD-00933	RSSEQ	1	RSMETH1	Method of Test or Examination 1	DECREASE TO A MAYO ENDOSCOPIC SUBSCORE OF 0 OR 1	PUBLIC SOURCE	
GSE16879	RS	IBD-00933	RSSEQ	1	RSMETH2	Method of Test or Examination 2	DECREASE TO GRADE 0 OR 1 ON THE HISTOLOGICAL SCORE	PUBLIC SOURCE	
GSE16879	RS	IBD-00933	RSSEQ	1	RSMETH3	Method of Test or Examination 3	COMPLETE MUCOSAL HEALING	PUBLIC SOURCE	
GSE16879	RS	IBD-00935	RSSEQ	1	RSMETH1	Method of Test or Examination 1	DECREASE TO A MAYO ENDOSCOPIC SUBSCORE OF 0 OR 1	PUBLIC SOURCE	
GSE16879	RS	IBD-00935	RSSEQ	1	RSMETH2	Method of Test or Examination 2	DECREASE TO GRADE 0 OR 1 ON THE HISTOLOGICAL SCORE	PUBLIC SOURCE	
GSE16879	RS	IBD-00935	RSSEQ	1	RSMETH3	Method of Test or Examination 3	COMPLETE MUCOSAL HEALING	PUBLIC SOURCE	
GSE16879	RS	IBD-00936	RSSEQ	1	RSMETH1	Method of Test or Examination 1	DECREASE TO A MAYO ENDOSCOPIC SUBSCORE OF 0 OR 1	PUBLIC SOURCE	
GSE16879	RS	IBD-00936	RSSEQ	1	RSMETH2	Method of Test or Examination 2	DECREASE TO GRADE 0 OR 1 ON THE HISTOLOGICAL SCORE	PUBLIC SOURCE	
GSE16879	RS	IBD-00936	RSSEQ	1	RSMETH3	Method of Test or Examination 3	COMPLETE MUCOSAL HEALING	PUBLIC SOURCE	
GSE16879	RS	IBD-00937	RSSEQ	1	RSMETH1	Method of Test or Examination 1	DECREASE TO A MAYO ENDOSCOPIC SUBSCORE OF 0 OR 1	PUBLIC SOURCE	
GSE16879	RS	IBD-00937	RSSEQ	1	RSMETH2	Method of Test or Examination 2	DECREASE TO GRADE 0 OR 1 ON THE HISTOLOGICAL SCORE	PUBLIC SOURCE	
GSE16879	RS	IBD-00937	RSSEQ	1	RSMETH3	Method of Test or Examination 3	COMPLETE MUCOSAL HEALING	PUBLIC SOURCE	
GSE16879	RS	IBD-00938	RSSEQ	1	RSMETH1	Method of Test or Examination 1	DECREASE TO A MAYO ENDOSCOPIC SUBSCORE OF 0 OR 1	PUBLIC SOURCE	
GSE16879	RS	IBD-00938	RSSEQ	1	RSMETH2	Method of Test or Examination 2	DECREASE TO GRADE 0 OR 1 ON THE HISTOLOGICAL SCORE	PUBLIC SOURCE	
GSE16879	RS	IBD-00938	RSSEQ	1	RSMETH3	Method of Test or Examination 3	COMPLETE MUCOSAL HEALING	PUBLIC SOURCE	
GSE16879	RS	IBD-00939	RSSEQ	1	RSMETH1	Method of Test or Examination 1	DECREASE TO A MAYO ENDOSCOPIC SUBSCORE OF 0 OR 1	PUBLIC SOURCE	
GSE16879	RS	IBD-00939	RSSEQ	1	RSMETH2	Method of Test or Examination 2	DECREASE TO GRADE 0 OR 1 ON THE HISTOLOGICAL SCORE	PUBLIC SOURCE	
GSE16879	RS	IBD-00939	RSSEQ	1	RSMETH3	Method of Test or Examination 3	COMPLETE MUCOSAL HEALING	PUBLIC SOURCE	
GSE16879	RS	IBD-00940	RSSEQ	1	RSMETH1	Method of Test or Examination 1	DECREASE TO A MAYO ENDOSCOPIC SUBSCORE OF 0 OR 1	PUBLIC SOURCE	
GSE16879	RS	IBD-00940	RSSEQ	1	RSMETH2	Method of Test or Examination 2	DECREASE TO GRADE 0 OR 1 ON THE HISTOLOGICAL SCORE	PUBLIC SOURCE	
GSE16879	RS	IBD-00940	RSSEQ	1	RSMETH3	Method of Test or Examination 3	COMPLETE MUCOSAL HEALING	PUBLIC SOURCE	
GSE16879	RS	IBD-00941	RSSEQ	1	RSMETH1	Method of Test or Examination 1	DECREASE TO A MAYO ENDOSCOPIC SUBSCORE OF 0 OR 1	PUBLIC SOURCE	
GSE16879	RS	IBD-00941	RSSEQ	1	RSMETH2	Method of Test or Examination 2	DECREASE TO GRADE 0 OR 1 ON THE HISTOLOGICAL SCORE	PUBLIC SOURCE	
GSE16879	RS	IBD-00941	RSSEQ	1	RSMETH3	Method of Test or Examination 3	COMPLETE MUCOSAL HEALING	PUBLIC SOURCE	
GSE16879	RS	IBD-00942	RSSEQ	1	RSMETH1	Method of Test or Examination 1	DECREASE TO A MAYO ENDOSCOPIC SUBSCORE OF 0 OR 1	PUBLIC SOURCE	
GSE16879	RS	IBD-00942	RSSEQ	1	RSMETH2	Method of Test or Examination 2	DECREASE TO GRADE 0 OR 1 ON THE HISTOLOGICAL SCORE	PUBLIC SOURCE	
GSE16879	RS	IBD-00942	RSSEQ	1	RSMETH3	Method of Test or Examination 3	COMPLETE MUCOSAL HEALING	PUBLIC SOURCE	
GSE16879	RS	IBD-00944	RSSEQ	1	RSMETH1	Method of Test or Examination 1	DECREASE TO A MAYO ENDOSCOPIC SUBSCORE OF 0 OR 1	PUBLIC SOURCE	
GSE16879	RS	IBD-00944	RSSEQ	1	RSMETH2	Method of Test or Examination 2	DECREASE TO GRADE 0 OR 1 ON THE HISTOLOGICAL SCORE	PUBLIC SOURCE	
GSE16879	RS	IBD-00944	RSSEQ	1	RSMETH3	Method of Test or Examination 3	COMPLETE MUCOSAL HEALING	PUBLIC SOURCE	
GSE16879	RS	IBD-00945	RSSEQ	1	RSMETH1	Method of Test or Examination 1	DECREASE TO A MAYO ENDOSCOPIC SUBSCORE OF 0 OR 1	PUBLIC SOURCE	
GSE16879	RS	IBD-00945	RSSEQ	1	RSMETH2	Method of Test or Examination 2	DECREASE TO GRADE 0 OR 1 ON THE HISTOLOGICAL SCORE	PUBLIC SOURCE	
GSE16879	RS	IBD-00945	RSSEQ	1	RSMETH3	Method of Test or Examination 3	COMPLETE MUCOSAL HEALING	PUBLIC SOURCE	
GSE16879	RS	IBD-00946	RSSEQ	1	RSMETH1	Method of Test or Examination 1	DECREASE TO A MAYO ENDOSCOPIC SUBSCORE OF 0 OR 1	PUBLIC SOURCE	
GSE16879	RS	IBD-00946	RSSEQ	1	RSMETH2	Method of Test or Examination 2	DECREASE TO GRADE 0 OR 1 ON THE HISTOLOGICAL SCORE	PUBLIC SOURCE	
GSE16879	RS	IBD-00946	RSSEQ	1	RSMETH3	Method of Test or Examination 3	COMPLETE MUCOSAL HEALING	PUBLIC SOURCE	
GSE16879	RS	IBD-00947	RSSEQ	1	RSMETH1	Method of Test or Examination 1	DECREASE TO A MAYO ENDOSCOPIC SUBSCORE OF 0 OR 1	PUBLIC SOURCE	
GSE16879	RS	IBD-00947	RSSEQ	1	RSMETH2	Method of Test or Examination 2	DECREASE TO GRADE 0 OR 1 ON THE HISTOLOGICAL SCORE	PUBLIC SOURCE	
GSE16879	RS	IBD-00947	RSSEQ	1	RSMETH3	Method of Test or Examination 3	COMPLETE MUCOSAL HEALING	PUBLIC SOURCE	
GSE16879	RS	IBD-00948	RSSEQ	1	RSMETH1	Method of Test or Examination 1	DECREASE TO A MAYO ENDOSCOPIC SUBSCORE OF 0 OR 1	PUBLIC SOURCE	
GSE16879	RS	IBD-00948	RSSEQ	1	RSMETH2	Method of Test or Examination 2	DECREASE TO GRADE 0 OR 1 ON THE HISTOLOGICAL SCORE	PUBLIC SOURCE	
GSE16879	RS	IBD-00948	RSSEQ	1	RSMETH3	Method of Test or Examination 3	COMPLETE MUCOSAL HEALING	PUBLIC SOURCE	
GSE16879	RS	IBD-00949	RSSEQ	1	RSMETH1	Method of Test or Examination 1	DECREASE TO A MAYO ENDOSCOPIC SUBSCORE OF 0 OR 1	PUBLIC SOURCE	
GSE16879	RS	IBD-00949	RSSEQ	1	RSMETH2	Method of Test or Examination 2	DECREASE TO GRADE 0 OR 1 ON THE HISTOLOGICAL SCORE	PUBLIC SOURCE	
GSE16879	RS	IBD-00949	RSSEQ	1	RSMETH3	Method of Test or Examination 3	COMPLETE MUCOSAL HEALING	PUBLIC SOURCE	
