STUDYID	RDOMAIN	USUBJID	IDVAR	IDVARVAL	QNAM	QLABEL	QVAL	QORIG	QEVAL
E-MTAB-331	HO	IBD-01006	HOSEQ	1	HOINDC	Indication	SEVERE CROHN'S DISEASE FLARE	DERIVED	
E-MTAB-331	HO	IBD-01007	HOSEQ	1	HOINDC	Indication	SEVERE CROHN'S DISEASE FLARE	DERIVED	
