STUDYID	RDOMAIN	USUBJID	IDVAR	IDVARVAL	QNAM	QLABEL	QVAL	QORIG	QEVAL
GSE1710	PF	IBD-00164	PFSEQ	1	ZYGOSITY	Zygosity	HETEROZYGOUS	PUBLIC SOURCE	
GSE1710	PF	IBD-00169	PFSEQ	1	ZYGOSITY	Zygosity	HETEROZYGOUS	PUBLIC SOURCE	
GSE1710	PF	IBD-00170	PFSEQ	1	ZYGOSITY	Zygosity	HETEROZYGOUS	PUBLIC SOURCE	
GSE1710	PF	IBD-00172	PFSEQ	1	ZYGOSITY	Zygosity	HETEROZYGOUS	PUBLIC SOURCE	
